timeTick, roll, pitch, yaw, accX, accY, accZ, baro, m1, m2, m3, m4, thrust, vbat, otX0, otY0, otZ0, otRoll0, otPitch0, otYaw0
238792, 0.6170981526374817, -1.000895619392395, -13.259791374206543, 0, 0, 0, 0, 0, 0, 0, 0, 0, 0, -0.17792093753814697, 0.22283925116062164, 0.06000759080052376, 0.011926549661635163, -0.015882767248797336, 0.03675842379298966
238802, 0.6173999309539795, -0.9994906783103943, -13.26050090789795, -0.01898171752691269, 0.012170474976301193, 1.0010175704956055, 0.724517822265625, 9362.0, 28835.0, 32767.0, 9362.0, 0.0, 8.33057975769043, -0.17792922258377075, 0.22285065054893494, 0.060010697692632675, 0.013932877964543745, -0.019901307409696756, 0.03463773734800015
238812, 0.6158189177513123, -0.9971705675125122, -13.26120376586914, -0.014209577813744545, 0.01079657580703497, 1.0024217367172241, 0.724517822265625, 9362.0, 28835.0, 32767.0, 9362.0, 0.0, 8.33057975769043, -0.17810402810573578, 0.22300449013710022, 0.06034126132726669, 0.058986198794981966, -0.06323463062412316, 0.03345034820807155
238822, 0.6165054440498352, -0.9948441386222839, -13.261266708374023, -0.013985163532197475, 0.0106150321662426, 1.0019035339355469, 0.6999053955078125, 9362.0, 28835.0, 32767.0, 9362.0, 0.0, 8.33057975769043, -0.17793430387973785, 0.2228449583053589, 0.06000824645161629, 0.00745283641875446, -0.023950650073885527, 0.03691476523979821
238832, 0.6154878735542297, -0.9945680499076843, -13.263311386108398, -0.0148989362642169, 0.00974873173981905, 1.0011006593704224, 0.6999053955078125, 9362.0, 28835.0, 32767.0, 9362.0, 0.0, 8.33057975769043, -0.17791898548603058, 0.22283536195755005, 0.06001383066177368, 0.019107609331267282, -0.008126484247100052, 0.036802264250062514
238842, 0.6154444217681885, -0.9954317212104797, -13.26345443725586, -0.01638181507587433, 0.010236255824565887, 1.002331018447876, 0.72998046875, 9362.0, 28835.0, 32767.0, 9362.0, 0.0, 8.33057975769043, -0.17793312668800354, 0.2228495478630066, 0.06001873314380646, 0.016030873782336797, -0.021719578600311706, 0.03091381872088537
238852, 0.6146748661994934, -0.9954707026481628, -13.26411247253418, -0.018343258649110794, 0.00969855859875679, 1.002854585647583, 0.72998046875, 9362.0, 28835.0, 32767.0, 9362.0, 0.0, 8.33057975769043, -0.17792768776416779, 0.2228516787290573, 0.060008756816387177, 0.023390652927411628, -0.014431662986964966, 0.03579237237779576
238862, 0.6146386861801147, -0.9956594705581665, -13.264423370361328, -0.01694035530090332, 0.008889568969607353, 1.003081202507019, 0.7573165893554688, 9362.0, 28835.0, 32767.0, 9362.0, 0.0, 8.310744285583496, -0.17791852355003357, 0.2228565365076065, 0.06000062823295593, 0.016476159915012785, -0.022422388919835612, 0.03563670201250673
238872, 0.6154395937919617, -0.9954348802566528, -13.26446533203125, -0.015158919617533684, 0.009694350883364677, 1.0025776624679565, 0.7573165893554688, 9362.0, 28835.0, 32767.0, 9362.0, 0.0, 8.33057975769043, -0.17793188989162445, 0.2228386104106903, 0.06000445783138275, 0.012400327390594032, -0.019884447390666082, 0.03449287049655245
238882, 0.6152428984642029, -0.9967036843299866, -13.265195846557617, -0.017710590735077858, 0.009313741698861122, 1.0026990175247192, 0.70263671875, 9362.0, 28835.0, 32767.0, 9362.0, 0.0, 8.310744285583496, -0.17792928218841553, 0.22284828126430511, 0.06001659110188484, 0.009982451367638012, -0.016604901841731134, 0.02371639171611576
238892, 0.6168642044067383, -0.9978312849998474, -13.264836311340332, -0.01771925762295723, 0.011271228082478046, 1.0019689798355103, 0.70263671875, 9362.0, 28835.0, 32767.0, 9362.0, 0.0, 8.33057975769043, -0.17810873687267303, 0.22299033403396606, 0.06033134460449219, 0.054469537088962315, -0.062456118611748934, 0.038036260518884236
238902, 0.6166279911994934, -0.998700737953186, -13.265222549438477, -0.016233569011092186, 0.011483479291200638, 0.9999650716781616, 0.697174072265625, 9362.0, 28835.0, 32767.0, 9362.0, 0.0, 8.33057975769043, -0.17793035507202148, 0.2228439301252365, 0.06000601872801781, 0.014090696224074392, -0.019825745932536165, 0.03340230887360827
238912, 0.6174028515815735, -0.9999709129333496, -13.266488075256348, -0.019069083034992218, 0.011182179674506187, 1.0014286041259766, 0.697174072265625, 9362.0, 28835.0, 32767.0, 9362.0, 0.0, 8.33057975769043, -0.17792309820652008, 0.22283460199832916, 0.06001857668161392, 0.017911639430783933, -0.017707632270287377, 0.03247307323243417
238922, 0.6177783608436584, -1.0015918016433716, -13.267029762268066, -0.018442217260599136, 0.00982308853417635, 1.0021408796310425, 0.6807632446289062, 9362.0, 28835.0, 32767.0, 9362.0, 0.0, 8.33057975769043, -0.17792505025863647, 0.2228485345840454, 0.06000646948814392, 0.015222588094171693, -0.014276819731833257, 0.03524017633117852
238932, 0.6168938279151917, -1.0023213624954224, -13.267245292663574, -0.016892582178115845, 0.011302441358566284, 1.001818299293518, 0.6807632446289062, 9362.0, 28835.0, 32767.0, 9362.0, 0.0, 8.33057975769043, -0.1779153048992157, 0.2228427678346634, 0.05999850109219551, 0.024918048201096034, -0.01518954674659767, 0.029923176856073316
238942, 0.6171364784240723, -1.002514362335205, -13.268620491027832, -0.0171697698533535, 0.009925679303705692, 1.0011647939682007, 0.6561660766601562, 9362.0, 28835.0, 32767.0, 9362.0, 0.0, 8.33057975769043, -0.17794276773929596, 0.2228667140007019, 0.06000139191746712, 0.019773926119929286, -0.016892732887100692, 0.035439789235621744
238952, 0.6170786619186401, -1.0040851831436157, -13.26779556274414, -0.01774793304502964, 0.011072905734181404, 0.9991889595985413, 0.6561660766601562, 9362.0, 28835.0, 32767.0, 9362.0, 0.0, 8.33057975769043, -0.17809611558914185, 0.2229919582605362, 0.060339078307151794, 0.052505761281306504, -0.060375118577098874, 0.02622545980477481
238962, 0.6159847378730774, -1.004810094833374, -13.268996238708496, -0.017917703837156296, 0.012099115177989006, 1.0013158321380615, 0.6124191284179688, 9362.0, 28835.0, 32767.0, 9362.0, 0.0, 8.33057975769043, -0.17792800068855286, 0.22285407781600952, 0.060012102127075195, 0.016789532737945968, -0.019702818804177014, 0.02648459125899005
238972, 0.6164100766181946, -1.0051941871643066, -13.269340515136719, -0.017460467293858528, 0.011288118548691273, 1.0039159059524536, 0.6124191284179688, 9362.0, 28835.0, 32767.0, 9362.0, 0.0, 8.33057975769043, -0.17793317139148712, 0.22285199165344238, 0.060028329491615295, 0.017101103911746553, -0.016583459565708836, 0.038452348147085195
238982, 0.6165053248405457, -1.0053842067718506, -13.270590782165527, -0.01674671098589897, 0.010937263257801533, 1.0009853839874268, 0.5960159301757812, 9362.0, 28835.0, 32767.0, 9362.0, 0.0, 8.33057975769043, -0.17792974412441254, 0.22283366322517395, 0.05998919531702995, 0.0141669158516837, -0.009140812791343933, 0.0285516213850722
238992, 0.6162875294685364, -1.0062671899795532, -13.272732734680176, -0.014878759160637856, 0.009872058406472206, 1.0017386674880981, 0.5960159301757812, 9362.0, 28835.0, 32767.0, 9362.0, 0.0, 8.33057975769043, -0.1779194474220276, 0.22284415364265442, 0.060009490698575974, 0.009506443988821608, -0.009595214521482376, 0.026700974290251703
239002, 0.6170730590820312, -1.0054203271865845, -13.27280330657959, -0.01544087752699852, 0.010552214458584785, 1.0024138689041138, 0.6725692749023438, 9362.0, 28835.0, 32767.0, 9362.0, 0.0, 8.33057975769043, -0.1779310256242752, 0.22283878922462463, 0.06002266705036163, 0.015109259025170376, -0.02000736182583296, 0.03255004267472693
239012, 0.6163924932479858, -1.0060646533966064, -13.273140907287598, -0.0150980893522501, 0.009584695100784302, 1.0035226345062256, 0.6725692749023438, 9362.0, 28835.0, 32767.0, 9362.0, 0.0, 8.33057975769043, -0.17793293297290802, 0.22284825146198273, 0.06001189723610878, 0.017840137542818758, -0.014700761337820722, 0.03663228345718463
239022, 0.6148931384086609, -1.0075500011444092, -13.273900032043457, -0.016812553629279137, 0.010367322713136673, 1.0036914348602295, 0.6588973999023438, 9362.0, 28835.0, 32767.0, 9362.0, 0.0, 8.33057975769043, -0.17793922126293182, 0.22285056114196777, 0.060015492141246796, 0.016149550883384167, -0.026008604675837432, 0.03148435962526626
239032, 0.6150014996528625, -1.007393479347229, -13.273866653442383, -0.015572596341371536, 0.01060614362359047, 1.0013275146484375, 0.6588973999023438, 9362.0, 28835.0, 32767.0, 9362.0, 0.0, 8.33057975769043, -0.1779354214668274, 0.22284525632858276, 0.06003706157207489, 0.022501683492743466, -0.016408861896536564, 0.034649741584112444
239042, 0.6137914657592773, -1.0082257986068726, -13.276798248291016, -0.015830323100090027, 0.011253640055656433, 1.0026795864105225, 0.7518539428710938, 9362.0, 28835.0, 32767.0, 9362.0, 0.0, 8.33057975769043, -0.1779199093580246, 0.22285012900829315, 0.059985626488924026, 0.015044530334439287, -0.019445377475278747, 0.029371535375532574
239052, 0.6146463751792908, -1.007239818572998, -13.277437210083008, -0.01710938848555088, 0.01049247570335865, 1.0033199787139893, 0.7518539428710938, 9362.0, 28835.0, 32767.0, 9362.0, 0.0, 8.33057975769043, -0.17808471620082855, 0.222983255982399, 0.06031538173556328, 0.04878540165372265, -0.05948252020527889, 0.02448482230441433
239062, 0.6146454215049744, -1.0071732997894287, -13.278270721435547, -0.017954867333173752, 0.011062540113925934, 1.005018711090088, 0.7545852661132812, 9362.0, 28835.0, 32767.0, 9362.0, 0.0, 8.33057975769043, -0.17790520191192627, 0.2228373885154724, 0.060000162571668625, 0.009714685045532339, -0.012316716284431095, 0.025008553523078667
239072, 0.6161618232727051, -1.0077729225158691, -13.277864456176758, -0.016966920346021652, 0.009956485591828823, 0.9996907711029053, 0.7545852661132812, 9362.0, 28835.0, 32767.0, 9362.0, 0.0, 8.33057975769043, -0.17792807519435883, 0.22282329201698303, 0.05998578667640686, 0.02444020896436751, -0.009715704080264231, 0.031154693921348342
239082, 0.6154529452323914, -1.0089465379714966, -13.278685569763184, -0.016599219292402267, 0.010764476843178272, 1.000537395477295, 0.803802490234375, 9362.0, 28835.0, 32767.0, 9362.0, 0.0, 8.33057975769043, -0.1779276728630066, 0.2228413075208664, 0.05999678745865822, 0.012011013467077307, -0.019159592162253603, 0.03202901682292465
239092, 0.6149174571037292, -1.0087138414382935, -13.279248237609863, -0.016201116144657135, 0.00940838921815157, 1.0028605461120605, 0.803802490234375, 9362.0, 28835.0, 32767.0, 9362.0, 0.0, 8.33057975769043, -0.1779148429632187, 0.22282324731349945, 0.05996820330619812, 0.017927261469651, -0.012424522832986895, 0.026016800999408396
239102, 0.6152234077453613, -1.0064268112182617, -13.28014087677002, -0.016582157462835312, 0.010237390175461769, 1.0028648376464844, 0.7682571411132812, 9362.0, 28835.0, 32767.0, 9362.0, 0.0, 8.33057975769043, -0.1779288500547409, 0.22284464538097382, 0.059982165694236755, 0.018617160639770442, -0.009400238181456189, 0.029712363001394227
239112, 0.6150531768798828, -1.0050588846206665, -13.28055477142334, -0.017676513642072678, 0.010899722576141357, 1.0010093450546265, 0.7682571411132812, 9362.0, 28835.0, 32767.0, 9362.0, 0.0, 8.33057975769043, -0.1779283732175827, 0.22283951938152313, 0.059988800436258316, 0.020463416547369013, -0.01624157008785687, 0.028286040070558363
239122, 0.6149745583534241, -1.0058525800704956, -13.281696319580078, -0.018622126430273056, 0.011099625378847122, 0.9993424415588379, 0.82293701171875, 9362.0, 28835.0, 32767.0, 9362.0, 0.0, 8.310744285583496, -0.17792712152004242, 0.22283734381198883, 0.060003139078617096, 0.0003559287029370242, -0.02121982265273914, 0.02599819494580829
239132, 0.6150090098381042, -1.0077760219573975, -13.282282829284668, -0.016782814636826515, 0.010786055587232113, 1.0017603635787964, 0.82293701171875, 9362.0, 28835.0, 32767.0, 9362.0, 0.0, 8.33057975769043, -0.17793598771095276, 0.22284191846847534, 0.059990350157022476, 0.017204611636276172, -0.017748606985890092, 0.031025181527922163
239142, 0.6144106984138489, -1.0089499950408936, -13.283392906188965, -0.01599278673529625, 0.009934712201356888, 1.0031667947769165, 0.9405059814453125, 9362.0, 28835.0, 32767.0, 9362.0, 0.0, 8.33057975769043, -0.17792531847953796, 0.2228425145149231, 0.05997975543141365, 0.017557038725709604, -0.01607258058811567, 0.03677128021045314
239152, 0.6140469908714294, -1.009432077407837, -13.284558296203613, -0.016062118113040924, 0.009761132299900055, 1.0033832788467407, 0.9405059814453125, 9362.0, 28835.0, 32767.0, 9362.0, 0.0, 8.33057975769043, -0.17793484032154083, 0.22283005714416504, 0.06002023071050644, 0.02093132979437452, -0.022250276842953554, 0.025842224912096638
239162, 0.6126996278762817, -1.0107781887054443, -13.284905433654785, -0.015727566555142403, 0.010042776353657246, 1.0037697553634644, 0.8858261108398438, 9362.0, 28835.0, 32767.0, 9362.0, 0.0, 8.33057975769043, -0.17794062197208405, 0.22285759449005127, 0.0600174255669117, 0.01570983076058039, -0.022155339039500177, 0.02908076633653434
239172, 0.6136505603790283, -1.0108904838562012, -13.286898612976074, -0.01565464958548546, 0.011092502623796463, 1.0016577243804932, 0.8858261108398438, 9362.0, 28835.0, 32767.0, 9362.0, 0.0, 8.33057975769043, -0.17792046070098877, 0.22283567488193512, 0.059977684170007706, 0.015661853075205304, -0.023632791744176984, 0.02645607349035638
239182, 0.6130558252334595, -1.011935830116272, -13.2872314453125, -0.017236091196537018, 0.010503103025257587, 1.0028177499771118, 0.8448104858398438, 9362.0, 28835.0, 32767.0, 9362.0, 0.0, 8.33057975769043, -0.17793633043766022, 0.2228393852710724, 0.06000850722193718, 0.01341534816061216, -0.023926722259091093, 0.03118043195438103
239192, 0.6129335165023804, -1.0112037658691406, -13.288768768310547, -0.015795603394508362, 0.01009996235370636, 1.000539779663086, 0.8448104858398438, 9362.0, 28835.0, 32767.0, 9362.0, 0.0, 8.33057975769043, -0.177943155169487, 0.22282756865024567, 0.06000981107354164, 0.011885224342064332, -0.02643079987538499, 0.024283710094058133
239202, 0.6113771796226501, -1.0116029977798462, -13.289857864379883, -0.016812410205602646, 0.010599790140986443, 1.0012961626052856, 0.8119964599609375, 9362.0, 28835.0, 32767.0, 9362.0, 0.0, 8.33057975769043, -0.17810212075710297, 0.22298774123191833, 0.060326896607875824, 0.047032013859462075, -0.0644462359122997, 0.034436145017286895
239212, 0.6107979416847229, -1.0112966299057007, -13.290534019470215, -0.014309730380773544, 0.01173415407538414, 1.0023539066314697, 0.8119964599609375, 9362.0, 28835.0, 32767.0, 9362.0, 0.0, 8.33057975769043, -0.17792467772960663, 0.2228412628173828, 0.059992715716362, 0.012270620811871299, -0.018629377771276268, 0.028058983011188376
239222, 0.610075056552887, -1.0113683938980103, -13.292266845703125, -0.014363724738359451, 0.01057389285415411, 1.0012911558151245, 0.80926513671875, 9362.0, 28835.0, 32767.0, 9362.0, 0.0, 8.33057975769043, -0.17793801426887512, 0.222833052277565, 0.05997764691710472, 0.017508436686458566, -0.011843279506393856, 0.039147986161846574
239232, 0.6089799404144287, -1.0136042833328247, -13.292143821716309, -0.014777417294681072, 0.008585117757320404, 1.0017967224121094, 0.80926513671875, 9362.0, 28835.0, 32767.0, 9362.0, 0.0, 8.33057975769043, -0.17808674275875092, 0.22298012673854828, 0.06032067909836769, 0.052355538844059836, -0.06175605966203079, 0.024522484608817608
239242, 0.6101142764091492, -1.0143492221832275, -13.292037963867188, -0.0160200372338295, 0.008838750422000885, 1.0009998083114624, 0.72998046875, 9362.0, 28835.0, 32767.0, 9362.0, 0.0, 8.33057975769043, -0.17792901396751404, 0.22284303605556488, 0.06001495569944382, 0.011394079835052105, -0.023391420155462583, 0.02740039256958401
239252, 0.6108214259147644, -1.0138816833496094, -13.292156219482422, -0.01926732435822487, 0.011124948970973492, 1.0016108751296997, 0.72998046875, 9362.0, 28835.0, 32767.0, 9362.0, 0.0, 8.33057975769043, -0.17792798578739166, 0.22285401821136475, 0.06001419201493263, 0.016140428782365688, -0.029479341837173934, 0.03503728387569989
239262, 0.6097059845924377, -1.0144070386886597, -13.29340648651123, -0.0192610714584589, 0.01210862584412098, 1.0031213760375977, 0.7272491455078125, 9362.0, 28835.0, 32767.0, 9362.0, 0.0, 8.33057975769043, -0.177934929728508, 0.22284750640392303, 0.05999424308538437, 0.019894996706438867, -0.02477493090327698, 0.040170021668694426
239272, 0.6086298823356628, -1.015516996383667, -13.293190956115723, -0.017220091074705124, 0.009360573254525661, 1.0022459030151367, 0.7272491455078125, 9362.0, 28835.0, 32767.0, 9362.0, 0.0, 8.33057975769043, -0.17792144417762756, 0.2228410840034485, 0.0600275956094265, 0.016427141017908885, -0.009313180912442931, 0.022313753099766687
239282, 0.6089444160461426, -1.0167603492736816, -13.293314933776855, -0.017434829846024513, 0.010821056552231312, 1.0014179944992065, 0.710845947265625, 9362.0, 28835.0, 32767.0, 9362.0, 0.0, 8.33057975769043, -0.1779339462518692, 0.2228444367647171, 0.0600057989358902, 0.011132910571652131, -0.01676742292227118, 0.032958306999233744
239292, 0.6077948212623596, -1.0156080722808838, -13.295077323913574, -0.01799321174621582, 0.010463537648320198, 1.001125454902649, 0.710845947265625, 9362.0, 28835.0, 32767.0, 9362.0, 0.0, 8.33057975769043, -0.17794589698314667, 0.222846120595932, 0.060027170926332474, 0.01338982221318158, -0.024802731491064378, 0.04280532224928676
239302, 0.6085754632949829, -1.01642644405365, -13.29584789276123, -0.01611676625907421, 0.010151803493499756, 1.0017471313476562, 0.6780319213867188, 9362.0, 28835.0, 32767.0, 9362.0, 0.0, 8.33057975769043, -0.17793871462345123, 0.22285306453704834, 0.06002328544855118, 0.02093502369578021, -0.020364037432528903, 0.03160639431911471
239312, 0.610034167766571, -1.0174866914749146, -13.295943260192871, -0.016081416979432106, 0.01015816256403923, 1.0030441284179688, 0.6780319213867188, 9362.0, 28835.0, 32767.0, 9362.0, 0.0, 8.33057975769043, -0.1779334843158722, 0.2228509783744812, 0.06002099812030792, 0.025311292945930985, -0.020396883458602133, 0.03834359596546043
239322, 0.6103523969650269, -1.0165133476257324, -13.296915054321289, -0.014878867194056511, 0.010827112011611462, 1.0018601417541504, 0.6999053955078125, 9362.0, 28835.0, 32767.0, 9362.0, 0.0, 8.33057975769043, -0.17811167240142822, 0.2229968011379242, 0.06032738834619522, 0.051488749787151844, -0.06296805520730686, 0.03707800668843071
239332, 0.6098621487617493, -1.015283465385437, -13.296868324279785, -0.017087019979953766, 0.012908164411783218, 1.0008033514022827, 0.6999053955078125, 9362.0, 28835.0, 32767.0, 9362.0, 0.0, 8.33057975769043, -0.17793059349060059, 0.22286085784435272, 0.06000478193163872, 0.021130106612988652, -0.01962509460571482, 0.03277104306988762
239342, 0.6098262667655945, -1.01539146900177, -13.297125816345215, -0.018586546182632446, 0.012217218056321144, 1.0005178451538086, 0.7272491455078125, 9362.0, 28835.0, 32767.0, 9362.0, 0.0, 8.33057975769043, -0.1779271960258484, 0.22285905480384827, 0.060002751648426056, 0.014257789752699488, -0.013906271507579504, 0.04028870689439961
239352, 0.6098365783691406, -1.0153858661651611, -13.298026084899902, -0.016357362270355225, 0.01000396627932787, 1.0019769668579102, 0.7272491455078125, 9362.0, 28835.0, 32767.0, 9362.0, 0.0, 8.33057975769043, -0.17792479693889618, 0.2228396236896515, 0.05999630317091942, 0.010463738788153128, -0.014939047721981069, 0.033519501141588394
239362, 0.6105183959007263, -1.0153666734695435, -13.300008773803711, -0.016868114471435547, 0.0109206922352314, 1.0003411769866943, 0.735443115234375, 9362.0, 28835.0, 32767.0, 9362.0, 0.0, 8.33057975769043, -0.17793160676956177, 0.22285296022891998, 0.06002315506339073, 0.017039677548837295, -0.01950609787414237, 0.0342112289156209
239372, 0.6120700240135193, -1.0152438879013062, -13.301688194274902, -0.016235951334238052, 0.01303128432482481, 1.0015206336975098, 0.735443115234375, 9362.0, 28835.0, 32767.0, 9362.0, 0.0, 8.33057975769043, -0.17793889343738556, 0.22286680340766907, 0.060005560517311096, 0.016213353782381267, -0.020003871731006484, 0.03350351548033598
239382, 0.6113644242286682, -1.0153777599334717, -13.302885055541992, -0.01772565208375454, 0.011374125257134438, 1.0022169351577759, 0.7627944946289062, 9362.0, 28835.0, 32767.0, 9362.0, 0.0, 8.33057975769043, -0.17808948457241058, 0.2229989469051361, 0.06032472476363182, 0.05898838486983412, -0.06464844369980938, 0.030002069121387673
239392, 0.611331045627594, -1.0139029026031494, -13.303740501403809, -0.016150878742337227, 0.008172834292054176, 0.9985241889953613, 0.7627944946289062, 9362.0, 28835.0, 32767.0, 9362.0, 0.0, 8.310744285583496, -0.17792905867099762, 0.22286252677440643, 0.06001421809196472, 0.015706041126618726, -0.021861240831327677, 0.03589989734740332
239402, 0.6106195449829102, -1.0119973421096802, -13.303876876831055, -0.014697992242872715, 0.008380698971450329, 1.000240445137024, 0.7846603393554688, 9362.0, 28835.0, 32767.0, 9362.0, 0.0, 8.310744285583496, -0.17792826890945435, 0.22284653782844543, 0.06000956520438194, 0.01819229399880964, -0.022946986610804743, 0.029204806568131562
239412, 0.6107486486434937, -1.0121428966522217, -13.304581642150879, -0.015853362157940865, 0.011335785500705242, 1.0017906427383423, 0.7846603393554688, 9362.0, 28835.0, 32767.0, 9362.0, 0.0, 8.33057975769043, -0.17793172597885132, 0.22284364700317383, 0.05998539924621582, 0.01970016471802095, -0.0060846183149294575, 0.035770361023217706
239422, 0.6109508275985718, -1.011372447013855, -13.303942680358887, -0.01608104631304741, 0.01044014934450388, 1.001006007194519, 0.7655258178710938, 9362.0, 28835.0, 32767.0, 9362.0, 0.0, 8.33057975769043, -0.17792657017707825, 0.22283552587032318, 0.05998946353793144, 0.01395575173039455, -0.01813248187502836, 0.02338095067015126
239432, 0.6116829514503479, -1.010250449180603, -13.305022239685059, -0.015117193572223186, 0.011774669401347637, 1.0014665126800537, 0.7655258178710938, 9362.0, 28835.0, 32767.0, 9362.0, 0.0, 8.33057975769043, -0.1779249608516693, 0.2228451371192932, 0.05999552458524704, 0.02219888366427242, -0.027607336404997795, 0.02489837495222741
239442, 0.6129328608512878, -1.0087305307388306, -13.305475234985352, -0.015710866078734398, 0.010949255898594856, 1.0034213066101074, 0.7545852661132812, 9362.0, 28835.0, 32767.0, 9362.0, 0.0, 8.33057975769043, -0.1779211014509201, 0.22281843423843384, 0.0599873848259449, 0.01354950345559567, -0.012649501452642653, 0.027151920838303135
239452, 0.611780047416687, -1.007810354232788, -13.305822372436523, -0.016362737864255905, 0.011004047468304634, 1.0030908584594727, 0.7545852661132812, 9362.0, 28835.0, 32767.0, 9362.0, 0.0, 8.310744285583496, -0.17793236672878265, 0.22283057868480682, 0.05999656021595001, 0.013587877022437252, -0.013909968046647236, 0.03222318225797516
239462, 0.6106694340705872, -1.0079972743988037, -13.307616233825684, -0.016563264653086662, 0.01245884969830513, 1.0023293495178223, 0.6643600463867188, 9362.0, 28835.0, 32767.0, 9362.0, 0.0, 8.33057975769043, -0.17792440950870514, 0.2228287011384964, 0.06002342328429222, 0.017412564045876558, -0.020636932538707242, 0.01755983835467867
239472, 0.6097648739814758, -1.0072592496871948, -13.308544158935547, -0.014932862482964993, 0.009613627567887306, 1.0015761852264404, 0.6643600463867188, 9362.0, 28835.0, 32767.0, 9362.0, 0.0, 8.33057975769043, -0.1779354363679886, 0.22284545004367828, 0.05999345704913139, 0.01626782479092931, -0.025354560854395913, 0.025650595534523268
239482, 0.6102913022041321, -1.0053004026412964, -13.310266494750977, -0.014113780111074448, 0.010740443132817745, 1.0020259618759155, 0.6889724731445312, 9362.0, 28835.0, 32767.0, 9362.0, 0.0, 8.33057975769043, -0.1779412478208542, 0.22283755242824554, 0.06000534072518349, 0.016407825723984217, -0.022857809538805895, 0.023547223763231494
239492, 0.6108383536338806, -1.0046559572219849, -13.3102445602417, -0.015533468686044216, 0.009972015395760536, 1.0034428834915161, 0.6889724731445312, 9362.0, 28835.0, 32767.0, 9362.0, 0.0, 8.33057975769043, -0.17793266475200653, 0.22284674644470215, 0.059988733381032944, 0.013648139729523494, -0.0303139839460016, 0.02594940038401152
239502, 0.6105563044548035, -1.0057960748672485, -13.311616897583008, -0.016240907832980156, 0.011893635615706444, 1.0017063617706299, 0.5850753784179688, 9362.0, 28835.0, 32767.0, 9362.0, 0.0, 8.33057975769043, -0.1779278665781021, 0.22284230589866638, 0.05998114123940468, 0.016438369261562672, -0.027272077332582967, 0.03059789584552529
239512, 0.6109989881515503, -1.00832200050354, -13.311870574951172, -0.01720076985657215, 0.009779093787074089, 0.9983499646186829, 0.5850753784179688, 9362.0, 28835.0, 32767.0, 9362.0, 0.0, 8.33057975769043, -0.1779157966375351, 0.22283318638801575, 0.06000572070479393, 0.01830331854061943, -0.02139969153611787, 0.026337212640585788
239522, 0.6102380752563477, -1.0077953338623047, -13.312828063964844, -0.01619565859436989, 0.010367874056100845, 0.9983178973197937, 0.6397552490234375, 9362.0, 28835.0, 32767.0, 9362.0, 0.0, 8.33057975769043, -0.1779336780309677, 0.22284501791000366, 0.06001482903957367, 0.019576379203599045, -0.02082098820253009, 0.02461415196004659
239532, 0.6107664108276367, -1.0077987909317017, -13.313497543334961, -0.018265681341290474, 0.011625826358795166, 1.001955509185791, 0.6397552490234375, 9362.0, 28835.0, 32767.0, 9362.0, 0.0, 8.33057975769043, -0.17793315649032593, 0.22284212708473206, 0.059974100440740585, 0.014500036084312629, -0.019619533206963524, 0.03224625472411453
239542, 0.6115593314170837, -1.0085608959197998, -13.313851356506348, -0.018662206828594208, 0.010434404015541077, 1.0017536878585815, 0.590545654296875, 9362.0, 28835.0, 32767.0, 9362.0, 0.0, 8.310744285583496, -0.17791755497455597, 0.22283026576042175, 0.0599798709154129, 0.001413293717850109, -0.01690836514646321, 0.0287830617945638
239552, 0.6117581129074097, -1.010008454322815, -13.314567565917969, -0.017158715054392815, 0.010695228353142738, 1.0022852420806885, 0.590545654296875, 9362.0, 28835.0, 32767.0, 9362.0, 0.0, 8.33057975769043, -0.17793671786785126, 0.22284752130508423, 0.05999614670872688, 0.014041425869604718, -0.013737713641575056, 0.03778719731235626
239562, 0.6116422414779663, -1.0104689598083496, -13.315044403076172, -0.016702009364962578, 0.008224254474043846, 1.0014482736587524, 0.6561660766601562, 9362.0, 28835.0, 32767.0, 9362.0, 0.0, 8.33057975769043, -0.1779244840145111, 0.22283387184143066, 0.06000540778040886, 0.019710889827708546, -0.021592202586901976, 0.03073555671553361
239572, 0.611138105392456, -1.0112271308898926, -13.315629959106445, -0.01727132499217987, 0.009204491972923279, 1.0019233226776123, 0.6561660766601562, 9362.0, 28835.0, 32767.0, 9362.0, 0.0, 8.33057975769043, -0.1781073361635208, 0.22299198806285858, 0.060338396579027176, 0.05321693781899449, -0.06575711748976687, 0.030350161810284892
239582, 0.6106117367744446, -1.0122886896133423, -13.317041397094727, -0.015627294778823853, 0.01044785138219595, 1.0020711421966553, 0.6807632446289062, 9362.0, 28835.0, 32767.0, 9362.0, 0.0, 8.33057975769043, -0.1779390424489975, 0.22284893691539764, 0.06002012640237808, 0.018760734079982046, -0.017856241937550976, 0.03297750317781833
239592, 0.6113157868385315, -1.0114706754684448, -13.31687068939209, -0.01631915755569935, 0.011811336502432823, 1.0004749298095703, 0.6807632446289062, 9362.0, 28835.0, 32767.0, 9362.0, 0.0, 8.33057975769043, -0.17793415486812592, 0.22284311056137085, 0.06003109738230705, 0.011698202020026622, -0.024128348707307623, 0.03601312980932969
239602, 0.6108787059783936, -1.0122125148773193, -13.317172050476074, -0.017643654718995094, 0.012174171395599842, 1.0002238750457764, 0.6807632446289062, 9362.0, 28835.0, 32767.0, 9362.0, 0.0, 8.33057975769043, -0.17795181274414062, 0.22284580767154694, 0.06002219393849373, 0.02163270736866549, -0.017180579423751396, 0.032030348250566276
239612, 0.6110997200012207, -1.0122945308685303, -13.318411827087402, -0.016728466376662254, 0.011864272877573967, 1.0001778602600098, 0.6807632446289062, 9362.0, 28835.0, 32767.0, 9362.0, 0.0, 8.33057975769043, -0.1779402494430542, 0.22285006940364838, 0.0600096620619297, 0.013079108567557592, -0.017456467074026705, 0.031810466591201424
239622, 0.6105729937553406, -1.0114238262176514, -13.32005500793457, -0.014784274622797966, 0.012426094152033329, 1.002830147743225, 0.6698379516601562, 9362.0, 28835.0, 32767.0, 9362.0, 0.0, 8.33057975769043, -0.17794382572174072, 0.2228526771068573, 0.059994176030159, 0.01683716743567594, -0.015371986191070164, 0.03264945980680299
239632, 0.6103391051292419, -1.01344633102417, -13.320466041564941, -0.016571661457419395, 0.012054143473505974, 1.0035473108291626, 0.6698379516601562, 9362.0, 28835.0, 32767.0, 9362.0, 0.0, 8.33057975769043, -0.1779354214668274, 0.22282759845256805, 0.06002749875187874, 0.013965543996052614, -0.02456004746474605, 0.03357592869141389
239642, 0.6120143532752991, -1.0138967037200928, -13.321730613708496, -0.01637491211295128, 0.01421976275742054, 1.004485845565796, 0.6807632446289062, 9362.0, 28835.0, 32767.0, 9362.0, 0.0, 8.310744285583496, -0.17793862521648407, 0.22285178303718567, 0.06001368165016174, 0.012944914745573114, -0.02769070097699, 0.03311816581106723
239652, 0.613174557685852, -1.0148544311523438, -13.323264122009277, -0.014602262526750565, 0.012425794266164303, 1.0022852420806885, 0.6807632446289062, 9362.0, 28835.0, 32767.0, 9362.0, 0.0, 8.33057975769043, -0.1779448390007019, 0.2228509485721588, 0.05999579280614853, 0.01652821594027242, -0.013155368748925866, 0.02704053343988123
239662, 0.6125227808952332, -1.01446533203125, -13.32420539855957, -0.01524942647665739, 0.012141617946326733, 1.0020408630371094, 0.6670989990234375, 9362.0, 28835.0, 32767.0, 9362.0, 0.0, 8.33057975769043, -0.17792701721191406, 0.22283300757408142, 0.05998796597123146, 0.019867008522886347, -0.013330092704904928, 0.030385206505593027
239672, 0.6107261180877686, -1.015769362449646, -13.326139450073242, -0.015949495136737823, 0.009451126679778099, 1.0024144649505615, 0.6670989990234375, 9362.0, 28835.0, 32767.0, 9362.0, 0.0, 8.33057975769043, -0.17793217301368713, 0.22283591330051422, 0.05998871475458145, 0.012865189896012423, -0.005669436671865924, 0.02369499026278466
239682, 0.611452043056488, -1.0167677402496338, -13.326974868774414, -0.01615675538778305, 0.009636204689741135, 1.0007556676864624, 0.5550003051757812, 9362.0, 28835.0, 32767.0, 9362.0, 0.0, 8.33057975769043, -0.17794525623321533, 0.22285214066505432, 0.0600234679877758, 0.01993270701202628, -0.027447917503820918, 0.03284844123083469
239692, 0.6099951267242432, -1.019122838973999, -13.328374862670898, -0.016656816005706787, 0.009652749635279179, 1.0027621984481812, 0.5550003051757812, 9362.0, 28835.0, 32767.0, 9362.0, 0.0, 8.33057975769043, -0.17793428897857666, 0.22285036742687225, 0.0599801242351532, 0.01173979226916275, -0.009481691883735266, 0.028106964028186004
239702, 0.6113778948783875, -1.0192309617996216, -13.328380584716797, -0.016468755900859833, 0.009012351743876934, 1.0009273290634155, 0.5741348266601562, 9362.0, 28835.0, 32767.0, 9362.0, 0.0, 8.33057975769043, -0.1779281049966812, 0.222840815782547, 0.05997208505868912, 0.022356943069342664, -0.009255155532542858, 0.027995999603156272
239712, 0.6102790832519531, -1.0197317600250244, -13.328415870666504, -0.015830185264348984, 0.008956760168075562, 1.0001519918441772, 0.5741348266601562, 9362.0, 28835.0, 32767.0, 9362.0, 0.0, 8.33057975769043, -0.17791932821273804, 0.22282537817955017, 0.05997731536626816, 0.015126531783249738, -0.018250305246169773, 0.03489132540256262
239722, 0.6096695065498352, -1.0174732208251953, -13.32869815826416, -0.015200040303170681, 0.010866070166230202, 1.0015840530395508, 0.5604705810546875, 9362.0, 28835.0, 32767.0, 9362.0, 0.0, 8.33057975769043, -0.1779363453388214, 0.22284206748008728, 0.05999915301799774, 0.022400295066363013, -0.019546891183694015, 0.0321714970242877
239732, 0.6099849939346313, -1.0167863368988037, -13.328964233398438, -0.017615314573049545, 0.010247135534882545, 1.0029208660125732, 0.5604705810546875, 9362.0, 28835.0, 32767.0, 9362.0, 0.0, 8.33057975769043, -0.1779150515794754, 0.22282564640045166, 0.059980086982250214, 0.018065848757522682, -0.010505761025939364, 0.03607027908454395
239742, 0.6113596558570862, -1.0162391662597656, -13.328795433044434, -0.016025403514504433, 0.009838514029979706, 1.0017082691192627, 0.5331268310546875, 9362.0, 28835.0, 32767.0, 9362.0, 0.0, 8.33057975769043, -0.17792581021785736, 0.2228361815214157, 0.0599832758307457, 0.02066897736949648, -0.01381320773373318, 0.032520307133299384
239752, 0.6099318861961365, -1.0164318084716797, -13.329273223876953, -0.01618550904095173, 0.011530322954058647, 1.00279700756073, 0.5331268310546875, 9362.0, 28835.0, 32767.0, 9362.0, 0.0, 8.33057975769043, -0.17792189121246338, 0.22284743189811707, 0.060009632259607315, 0.012682912427587597, -0.022990364959298404, 0.0313633960799415
239762, 0.6081717610359192, -1.0137121677398682, -13.3303804397583, -0.016163121908903122, 0.010138426907360554, 1.001585602760315, 0.6206207275390625, 9362.0, 28835.0, 32767.0, 9362.0, 0.0, 8.33057975769043, -0.17793568968772888, 0.22284391522407532, 0.06000702083110809, 0.012327443791449334, -0.02691486011167399, 0.030072134345850043
239772, 0.6083043217658997, -1.0123423337936401, -13.330037117004395, -0.015479221940040588, 0.01013898104429245, 1.0012928247451782, 0.6206207275390625, 9362.0, 28835.0, 32767.0, 9362.0, 0.0, 8.33057975769043, -0.17790398001670837, 0.22284503281116486, 0.059967707842588425, 0.01246443544748316, -0.01401339895241449, 0.03300365642859154
239782, 0.6091253161430359, -1.0121957063674927, -13.330920219421387, -0.01508412230759859, 0.009464172646403313, 1.0008971691131592, 0.6698379516601562, 9362.0, 28835.0, 32767.0, 9362.0, 0.0, 8.33057975769043, -0.17792721092700958, 0.22284922003746033, 0.05998823419213295, 0.021187847254225577, -0.015055187124147551, 0.038638162974411694
239792, 0.610572099685669, -1.0126289129257202, -13.331317901611328, -0.016993679106235504, 0.008929260075092316, 1.0023257732391357, 0.6698379516601562, 9362.0, 28835.0, 32767.0, 9362.0, 0.0, 8.33057975769043, -0.17793285846710205, 0.22284522652626038, 0.05999921262264252, 0.021573218421229206, -0.021432754481992333, 0.037442475821649
239802, 0.6107936501502991, -1.0119590759277344, -13.331558227539062, -0.015149954706430435, 0.010637540370225906, 1.0029704570770264, 0.724517822265625, 9362.0, 28835.0, 32767.0, 9362.0, 0.0, 8.33057975769043, -0.17792265117168427, 0.2228466272354126, 0.06002615764737129, 0.018668931520051862, -0.02211784699508712, 0.03315952543857606
239812, 0.6098690629005432, -1.0132622718811035, -13.33347225189209, -0.014697153121232986, 0.008027803152799606, 1.0006760358810425, 0.724517822265625, 9362.0, 28835.0, 32767.0, 9362.0, 0.0, 8.33057975769043, -0.17791743576526642, 0.2228359580039978, 0.059995733201503754, 0.01992571003501429, -0.01273814395079853, 0.03376282956499335
239822, 0.6092220544815063, -1.0139997005462646, -13.335454940795898, -0.014075183309614658, 0.0074745966121554375, 0.9991238117218018, 0.7081069946289062, 9362.0, 28835.0, 32767.0, 9362.0, 0.0, 8.33057975769043, -0.17792241275310516, 0.22284062206745148, 0.06000374257564545, 0.02115315616251375, -0.012924610967502304, 0.03832607970897252
239832, 0.608941376209259, -1.015606164932251, -13.336133003234863, -0.015482398681342602, 0.010178716853260994, 0.999622106552124, 0.7081069946289062, 9362.0, 28835.0, 32767.0, 9362.0, 0.0, 8.310744285583496, -0.17794373631477356, 0.22285115718841553, 0.06001238897442818, 0.020772798416457697, -0.03350816622750585, 0.04033388323377187
239842, 0.6093912720680237, -1.0148000717163086, -13.337783813476562, -0.01624126546084881, 0.011998439207673073, 1.0002262592315674, 0.6643600463867188, 9362.0, 28835.0, 32767.0, 9362.0, 0.0, 8.33057975769043, -0.17791740596294403, 0.2228456288576126, 0.05998259037733078, 0.013395846965934592, -0.02067657570233905, 0.03387105798986547
239852, 0.6092610955238342, -1.0145353078842163, -13.338630676269531, -0.015160555019974709, 0.01253370102494955, 0.9999877214431763, 0.6643600463867188, 9362.0, 28835.0, 32767.0, 9362.0, 0.0, 8.33057975769043, -0.1779172718524933, 0.2228446900844574, 0.05999324843287468, 0.00911601049786048, -0.011034241334158423, 0.036031789463424266
239862, 0.6096380949020386, -1.0146548748016357, -13.34058666229248, -0.015600672923028469, 0.014259682036936283, 1.0022023916244507, 0.6999053955078125, 9362.0, 28835.0, 32767.0, 9362.0, 0.0, 8.33057975769043, -0.17794084548950195, 0.22284846007823944, 0.06000959128141403, 0.025037085641802487, -0.022898458671107846, 0.0435716109920347
239872, 0.6093117594718933, -1.0158028602600098, -13.342245101928711, -0.019780203700065613, 0.011658756993710995, 1.0011844635009766, 0.6999053955078125, 9362.0, 28835.0, 32767.0, 9362.0, 0.0, 8.33057975769043, -0.17793008685112, 0.22284358739852905, 0.05998172238469124, 0.023438785303464764, -0.0040928965431703546, 0.03672338119338034
239882, 0.6097750067710876, -1.017333745956421, -13.343162536621094, -0.018288375809788704, 0.010677710175514221, 1.0003522634506226, 0.6670989990234375, 9362.0, 28835.0, 32767.0, 9362.0, 0.0, 8.33057975769043, -0.17792953550815582, 0.2228429615497589, 0.060024067759513855, 0.025108678474302693, -0.014865396263246566, 0.030822239529615783
239892, 0.6112101078033447, -1.0187937021255493, -13.343439102172852, -0.017218947410583496, 0.010926785878837109, 1.0007045269012451, 0.6670989990234375, 9362.0, 28835.0, 32767.0, 9362.0, 0.0, 8.33057975769043, -0.17792178690433502, 0.22284437716007233, 0.0599924772977829, 0.028050348321433438, -0.013687290111136008, 0.03961431453658771
239902, 0.6110698580741882, -1.0162349939346313, -13.34414291381836, -0.015107711777091026, 0.011991818435490131, 1.0022883415222168, 0.6780319213867188, 9362.0, 28835.0, 32767.0, 9362.0, 0.0, 8.33057975769043, -0.17793558537960052, 0.22284191846847534, 0.060017529875040054, 0.015515063934975896, -0.01890883407901356, 0.030841724795052466
239912, 0.6104528903961182, -1.0169081687927246, -13.345207214355469, -0.01790100708603859, 0.011230044066905975, 1.0037105083465576, 0.6780319213867188, 9362.0, 28835.0, 32767.0, 9362.0, 0.0, 8.33057975769043, -0.17792294919490814, 0.2228386253118515, 0.06002601608633995, 0.013434941138354944, -0.027538243331690637, 0.025586928435485178
239922, 0.6104447841644287, -1.0172847509384155, -13.345282554626465, -0.019107133150100708, 0.010346300899982452, 1.0020123720169067, 0.65069580078125, 9362.0, 28835.0, 32767.0, 9362.0, 0.0, 8.33057975769043, -0.1779436320066452, 0.22284184396266937, 0.06001800298690796, 0.020671391902935224, -0.022169132914996226, 0.022813955035487554
239932, 0.6114324331283569, -1.019210934638977, -13.345412254333496, -0.01692689023911953, 0.013451154343783855, 1.0023155212402344, 0.65069580078125, 9362.0, 28835.0, 32767.0, 9362.0, 0.0, 8.33057975769043, -0.17793263494968414, 0.22284269332885742, 0.059995364397764206, 0.01359918813428274, -0.014495416582974485, 0.021630342370124823
239942, 0.6137933135032654, -1.0201326608657837, -13.346033096313477, -0.015290613286197186, 0.014674436300992966, 1.0029271841049194, 0.6917037963867188, 9362.0, 28835.0, 32767.0, 9362.0, 0.0, 8.33057975769043, -0.17794787883758545, 0.22284893691539764, 0.060018375515937805, 0.016127252958740887, -0.019143662079130763, 0.02938505290165773
239952, 0.6124681830406189, -1.0199867486953735, -13.346020698547363, -0.016398653388023376, 0.010902712121605873, 1.0029809474945068, 0.6917037963867188, 9362.0, 28835.0, 32767.0, 9362.0, 0.0, 8.33057975769043, -0.17793244123458862, 0.222824364900589, 0.05999758839607239, 0.02431947060319015, -0.013762017449352015, 0.029731453433183636
239962, 0.612889289855957, -1.0208877325057983, -13.3462553024292, -0.016485489904880524, 0.010252315551042557, 1.0030300617218018, 0.6725692749023438, 9362.0, 28835.0, 32767.0, 9362.0, 0.0, 8.33057975769043, -0.1779307872056961, 0.22283650934696198, 0.06002824008464813, 0.014930946012833516, -0.02491525841472253, 0.030642957915968154
239972, 0.612143337726593, -1.020676612854004, -13.34649658203125, -0.015572466887533665, 0.010134481824934483, 1.0011152029037476, 0.6725692749023438, 9362.0, 28835.0, 32767.0, 9362.0, 0.0, 8.33057975769043, -0.17792463302612305, 0.2228461354970932, 0.05998285114765167, 0.005569679153923065, -0.020647348896034146, 0.021804375105524985
239982, 0.6125116348266602, -1.0198612213134766, -13.347427368164062, -0.014676310122013092, 0.009961448609828949, 1.0010355710983276, 0.7053756713867188, 9362.0, 28835.0, 32767.0, 9362.0, 0.0, 8.310744285583496, -0.1779317706823349, 0.22285707294940948, 0.05999571457505226, 0.019207471110149293, -0.01340211379908851, 0.03118610410792539
239992, 0.6126709580421448, -1.0196720361709595, -13.348700523376465, -0.015196049585938454, 0.012796849943697453, 1.0029098987579346, 0.7053756713867188, 9362.0, 28835.0, 32767.0, 9362.0, 0.0, 8.33057975769043, -0.17792940139770508, 0.22284013032913208, 0.05998042970895767, 0.018530572915554797, -0.017610012510289152, 0.036478898960939636
240002, 0.6133795976638794, -1.0200444459915161, -13.350613594055176, -0.01659413054585457, 0.011391950771212578, 1.0025520324707031, 0.7272491455078125, 9362.0, 28835.0, 32767.0, 9362.0, 0.0, 8.33057975769043, -0.1779146045446396, 0.22283321619033813, 0.05998818576335907, 0.021712983819158902, 0.00033544512535854665, 0.029105211605359935
240012, 0.6138478517532349, -1.0188701152801514, -13.352482795715332, -0.017628416419029236, 0.012211738154292107, 1.002255916595459, 0.7272491455078125, 9362.0, 28835.0, 32767.0, 9362.0, 0.0, 8.33057975769043, -0.17792387306690216, 0.22283311188220978, 0.06000254675745964, 0.016126053707863804, -0.025733924966658606, 0.0374411818027186
240022, 0.6145025491714478, -1.0206661224365234, -13.352900505065918, -0.01768253929913044, 0.012383656576275826, 1.002838373184204, 0.7463836669921875, 9362.0, 28835.0, 32767.0, 9362.0, 0.0, 8.33057975769043, -0.17791835963726044, 0.22283479571342468, 0.059993743896484375, 0.015754394662520273, -0.02741490804172031, 0.02509461922385318
240032, 0.6153294444084167, -1.0207620859146118, -13.35278034210205, -0.017027854919433594, 0.00948974397033453, 1.0027539730072021, 0.7463836669921875, 9362.0, 28835.0, 32767.0, 9362.0, 0.0, 8.33057975769043, -0.17793123424053192, 0.2228468805551529, 0.06000848487019539, 0.01917921957757441, -0.022783019734390564, 0.029230249586947577
240042, 0.6170092821121216, -1.02022385597229, -13.352980613708496, -0.01608596369624138, 0.010990653187036514, 1.0010535717010498, 0.7381820678710938, 9362.0, 28835.0, 32767.0, 9362.0, 0.0, 8.310744285583496, -0.17792318761348724, 0.22283177077770233, 0.06002335622906685, 0.015073655348609664, -0.022294060059152798, 0.025571007619097943
240052, 0.6174347996711731, -1.0205305814743042, -13.352882385253906, -0.016727587208151817, 0.012206779792904854, 1.00319504737854, 0.7381820678710938, 9362.0, 28835.0, 32767.0, 9362.0, 0.0, 8.33057975769043, -0.17792575061321259, 0.2228427529335022, 0.0599810890853405, 0.019341179281992846, -0.010042221505386806, 0.0377735242340744
240062, 0.6162764430046082, -1.0203633308410645, -13.355295181274414, -0.01616894267499447, 0.012004124000668526, 1.0026428699493408, 0.7381820678710938, 9362.0, 28835.0, 32767.0, 9362.0, 0.0, 8.310744285583496, -0.17793358862400055, 0.22283190488815308, 0.060006044805049896, 0.01786554598528642, -0.02484445446805239, 0.03450139285505185
240072, 0.616550624370575, -1.0212990045547485, -13.354341506958008, -0.016591724008321762, 0.009147409349679947, 1.0004884004592896, 0.817474365234375, 9362.0, 28835.0, 32767.0, 9362.0, 0.0, 8.310744285583496, -0.17793624103069305, 0.22284680604934692, 0.0600300133228302, 0.019718722232975144, -0.017365860532464694, 0.025129546133681763
240082, 0.6166099309921265, -1.0196242332458496, -13.353946685791016, -0.01693005859851837, 0.009850794449448586, 1.0016412734985352, 0.7463836669921875, 9362.0, 28835.0, 32767.0, 9362.0, 0.0, 8.33057975769043, -0.17794236540794373, 0.22284631431102753, 0.06000674515962601, 0.02293383088823356, -0.02021701653495711, 0.03612595249356784
240092, 0.6165846586227417, -1.0184826850891113, -13.355051040649414, -0.01485343836247921, 0.00965164601802826, 1.003182291984558, 0.7463836669921875, 9362.0, 28835.0, 32767.0, 9362.0, 0.0, 8.310744285583496, -0.17793738842010498, 0.22285854816436768, 0.05999625846743584, 0.013705293503594519, -0.024451151009884597, 0.030941246894341686
240102, 0.6142382621765137, -1.0174278020858765, -13.355132102966309, -0.015504028648138046, 0.01108128484338522, 1.0021237134933472, 0.7463836669921875, 9362.0, 28835.0, 32767.0, 9362.0, 0.0, 8.33057975769043, -0.17792581021785736, 0.2228458970785141, 0.06001230701804161, 0.012110548727741708, -0.019856341618634588, 0.02453791703200211
240112, 0.6147194504737854, -1.0186480283737183, -13.355314254760742, -0.017437394708395004, 0.008520265109837055, 1.0017632246017456, 0.817474365234375, 9362.0, 28835.0, 32767.0, 9362.0, 0.0, 8.33057975769043, -0.17792417109012604, 0.22284062206745148, 0.06003492698073387, 0.022036932760556405, -0.016443949197054053, 0.032467561404098594
240122, 0.6153088808059692, -1.0223177671432495, -13.355863571166992, -0.017081473022699356, 0.009959227405488491, 1.000927209854126, 0.817474365234375, 9362.0, 28835.0, 32767.0, 9362.0, 0.0, 8.33057975769043, -0.17792388796806335, 0.22284607589244843, 0.05999069660902023, 0.01474400220784392, -0.013526462608552947, 0.03592505346543917
240132, 0.6161329746246338, -1.0231574773788452, -13.355666160583496, -0.01773080974817276, 0.010702228173613548, 0.9997678995132446, 0.7873916625976562, 9362.0, 28835.0, 32767.0, 9362.0, 0.0, 8.33057975769043, -0.17794567346572876, 0.22284382581710815, 0.06002597138285637, 0.016309695414586923, -0.019241818152408996, 0.03337640018672546
240142, 0.6166231036186218, -1.0208854675292969, -13.356274604797363, -0.015618274919688702, 0.011758893728256226, 1.000175952911377, 0.7573165893554688, 9362.0, 28835.0, 32767.0, 9362.0, 0.0, 8.33057975769043, -0.17793890833854675, 0.22285307943820953, 0.060013145208358765, 0.009372532759511635, -0.019547012147427267, 0.023876748897511926
240152, 0.6165215969085693, -1.0215188264846802, -13.357963562011719, -0.016817744821310043, 0.009311352856457233, 1.0013309717178345, 0.7573165893554688, 9362.0, 28835.0, 32767.0, 9362.0, 0.0, 8.33057975769043, -0.17792989313602448, 0.22283339500427246, 0.06001877412199974, 0.006730122572954996, -0.020394965116651065, 0.02599962435189324
240162, 0.6155941486358643, -1.0227246284484863, -13.3585205078125, -0.017036225646734238, 0.008003906346857548, 1.0041626691818237, 0.7573165893554688, 9362.0, 28835.0, 32767.0, 9362.0, 0.0, 8.33057975769043, -0.17791980504989624, 0.22283394634723663, 0.059993792325258255, 0.017047830406826586, -0.012792628536601569, 0.03153393321116001
240172, 0.6164388656616211, -1.0209816694259644, -13.35857105255127, -0.018052443861961365, 0.009434103965759277, 1.0028764009475708, 0.7791976928710938, 9362.0, 28835.0, 32767.0, 9362.0, 0.0, 8.33057975769043, -0.17793786525726318, 0.2228483259677887, 0.05999034270644188, 0.01389474281553943, -0.011038578162214208, 0.028808405504869846
240182, 0.6159413456916809, -1.0189709663391113, -13.358222961425781, -0.015839621424674988, 0.011604299768805504, 1.0024168491363525, 0.7791976928710938, 9362.0, 28835.0, 32767.0, 9362.0, 0.0, 8.33057975769043, -0.17794184386730194, 0.22283752262592316, 0.059986215084791183, 0.01909814292835527, -0.018743937220108364, 0.03311390112651392
240192, 0.6168866753578186, -1.0191384553909302, -13.358887672424316, -0.015033455565571785, 0.012402704916894436, 1.0014941692352295, 0.828399658203125, 9362.0, 28835.0, 32767.0, 9362.0, 0.0, 8.33057975769043, -0.17792482674121857, 0.2228584736585617, 0.0599900558590889, 0.018274592055468563, -0.01013010051556762, 0.025286305710907318
240202, 0.6184207797050476, -1.0207659006118774, -13.35930061340332, -0.016622163355350494, 0.010771645233035088, 1.0007206201553345, 0.828399658203125, 9362.0, 28835.0, 32767.0, 9362.0, 0.0, 8.33057975769043, -0.17792166769504547, 0.22284026443958282, 0.060022830963134766, 0.00862740766340029, -0.018328228910178268, 0.02617873473130993
240212, 0.6172161102294922, -1.0212382078170776, -13.359695434570312, -0.01635778695344925, 0.010245371609926224, 1.0000821352005005, 0.7409210205078125, 9362.0, 28835.0, 32767.0, 9362.0, 0.0, 8.33057975769043, -0.17793649435043335, 0.2228413224220276, 0.05998712405562401, 0.017574616598570923, -0.021283775824258555, 0.03449175801892201
240222, 0.61781907081604, -1.0218992233276367, -13.360458374023438, -0.016937702894210815, 0.009515214711427689, 1.0020931959152222, 0.7409210205078125, 9362.0, 28835.0, 32767.0, 9362.0, 0.0, 8.33057975769043, -0.17792366445064545, 0.222835972905159, 0.05997669696807861, 0.021401188785252056, -0.00371581518791686, 0.025256491400158728
240232, 0.6177358627319336, -1.0230214595794678, -13.361403465270996, -0.016417287290096283, 0.009715459309518337, 1.003516674041748, 0.6889724731445312, 9362.0, 28835.0, 32767.0, 9362.0, 0.0, 8.33057975769043, -0.17792224884033203, 0.22282634675502777, 0.059991754591464996, 0.014468048675288742, -0.015984942676453784, 0.03414208364471095
240242, 0.6181349754333496, -1.0223861932754517, -13.362133979797363, -0.01853504776954651, 0.011482598260045052, 1.0014612674713135, 0.6889724731445312, 9362.0, 28835.0, 32767.0, 9362.0, 0.0, 8.33057975769043, -0.1779150366783142, 0.2228173166513443, 0.06001751497387886, 0.017211244432770074, -0.012932070336404422, 0.02761592702323166
240252, 0.6167458295822144, -1.020918846130371, -13.363385200500488, -0.018945548683404922, 0.012186690233647823, 1.000413179397583, 0.71630859375, 9362.0, 28835.0, 32767.0, 9362.0, 0.0, 8.33057975769043, -0.17793641984462738, 0.22283899784088135, 0.060011740773916245, 0.013387953145799386, -0.020235742826145042, 0.030398813771628556
240262, 0.6158473491668701, -1.0218548774719238, -13.365674018859863, -0.017249820753932, 0.012113649398088455, 1.0006062984466553, 0.71630859375, 9362.0, 28835.0, 32767.0, 9362.0, 0.0, 8.33057975769043, -0.17793890833854675, 0.2228367179632187, 0.05999187380075455, 0.014920800198311775, -0.01589282655626789, 0.027961583300565158
240272, 0.6159728169441223, -1.0220524072647095, -13.366247177124023, -0.016504542902112007, 0.010390937328338623, 1.0026094913482666, 0.6807632446289062, 9362.0, 28835.0, 32767.0, 9362.0, 0.0, 8.33057975769043, -0.17792868614196777, 0.22283773124217987, 0.05998130887746811, 0.01796970497167496, -0.008662768980627789, 0.032615355272543216
240282, 0.6166427135467529, -1.0249024629592896, -13.367042541503906, -0.017656471580266953, 0.010828975588083267, 1.001047134399414, 0.6807632446289062, 9362.0, 28835.0, 32767.0, 9362.0, 0.0, 8.33057975769043, -0.17790544033050537, 0.2228374481201172, 0.05997160077095032, 0.011846084756729281, -0.006622876635589137, 0.02173383080158346
240292, 0.6170210242271423, -1.0243830680847168, -13.368046760559082, -0.016654906794428825, 0.010718490928411484, 1.0006139278411865, 0.697174072265625, 9362.0, 28835.0, 32767.0, 9362.0, 0.0, 8.33057975769043, -0.17793060839176178, 0.2228417694568634, 0.05998866260051727, 0.014353275976227793, -0.01625147497580315, 0.02300118744781195
240302, 0.6165891885757446, -1.0239492654800415, -13.369593620300293, -0.017410026863217354, 0.010862365365028381, 1.0013991594314575, 0.697174072265625, 9362.0, 28835.0, 32767.0, 9362.0, 0.0, 8.33057975769043, -0.17793379724025726, 0.22284755110740662, 0.05997895449399948, 0.020086674353861033, -0.014722589293938881, 0.03192172788017391
240312, 0.616149365901947, -1.0251290798187256, -13.37083625793457, -0.01617223583161831, 0.010588361881673336, 1.004456877708435, 0.6206207275390625, 9362.0, 28835.0, 32767.0, 9362.0, 0.0, 8.33057975769043, -0.17793269455432892, 0.2228260189294815, 0.05999121814966202, 0.015711870539350463, -0.008886452299009306, 0.02723502080760825
240322, 0.6159296035766602, -1.0272822380065918, -13.37126350402832, -0.01661662571132183, 0.010072614997625351, 1.0020006895065308, 0.6206207275390625, 9362.0, 28835.0, 32767.0, 9362.0, 0.0, 8.33057975769043, -0.1779424101114273, 0.22283808887004852, 0.0600145198404789, 0.020829234531421745, -0.01764640221804825, 0.03835257767135639
240332, 0.6158528923988342, -1.0262140035629272, -13.37309455871582, -0.016108162701129913, 0.011043922044336796, 1.0007221698760986, 0.6561660766601562, 9362.0, 28835.0, 32767.0, 9362.0, 0.0, 8.33057975769043, -0.17791703343391418, 0.22284099459648132, 0.06000848859548569, 0.02374922216117947, -0.02130997544563229, 0.029893887241643213
240342, 0.6158969402313232, -1.0245280265808105, -13.375070571899414, -0.015064531937241554, 0.009793583303689957, 1.0025410652160645, 0.6561660766601562, 9362.0, 28835.0, 32767.0, 9362.0, 0.0, 8.33057975769043, -0.1779317557811737, 0.22283056378364563, 0.06000246852636337, 0.013306232488220516, -0.014495796305197928, 0.02159366711837654
240352, 0.6166974306106567, -1.0242818593978882, -13.375319480895996, -0.016432126984000206, 0.012321176007390022, 1.0032877922058105, 0.6342926025390625, 9362.0, 28835.0, 32767.0, 9362.0, 0.0, 8.310744285583496, -0.17793962359428406, 0.22283823788166046, 0.060012031346559525, 0.017109570861689013, -0.022791395466214226, 0.033525146274195484
240362, 0.6157019734382629, -1.0233569145202637, -13.376967430114746, -0.01543596014380455, 0.009122953750193119, 1.0032384395599365, 0.6342926025390625, 9362.0, 28835.0, 32767.0, 9362.0, 0.0, 8.310744285583496, -0.17794817686080933, 0.2228403389453888, 0.06000489369034767, 0.01860569739184623, -0.022645515355748103, 0.03534938117547308
240372, 0.6153096556663513, -1.0213795900344849, -13.376814842224121, -0.015296941623091698, 0.010315332561731339, 1.000115990638733, 0.6753005981445312, 9362.0, 28835.0, 32767.0, 9362.0, 0.0, 8.33057975769043, -0.17792631685733795, 0.22282220423221588, 0.060005322098731995, 0.019369982404361937, -0.014048083503524822, 0.023447372023002802
240382, 0.6133849620819092, -1.0217695236206055, -13.379292488098145, -0.018450725823640823, 0.010072918608784676, 1.0016894340515137, 0.6753005981445312, 9362.0, 28835.0, 32767.0, 9362.0, 0.0, 8.33057975769043, -0.17793728411197662, 0.2228369116783142, 0.06001044809818268, 0.028260509982801097, -0.01729912909564746, 0.028703023224920746
240392, 0.6133807897567749, -1.0230076313018799, -13.378969192504883, -0.01949608512222767, 0.00915681105107069, 1.0019898414611816, 0.6834945678710938, 9362.0, 28835.0, 32767.0, 9362.0, 0.0, 8.33057975769043, -0.177933469414711, 0.22283430397510529, 0.060005560517311096, 0.015299707617291243, -0.02607749064941345, 0.028495487018232568
240402, 0.6121047735214233, -1.0231702327728271, -13.380456924438477, -0.016764720901846886, 0.008002661168575287, 1.0010968446731567, 0.6834945678710938, 9362.0, 28835.0, 32767.0, 9362.0, 0.0, 8.33057975769043, -0.17793652415275574, 0.22284185886383057, 0.05998828262090683, 0.015523330798987945, -0.013197640146074718, 0.022399524805311474
240412, 0.6116076707839966, -1.0212714672088623, -13.381722450256348, -0.015654003247618675, 0.008231108076870441, 1.0003080368041992, 0.6561660766601562, 9362.0, 28835.0, 32767.0, 9362.0, 0.0, 8.33057975769043, -0.17794661223888397, 0.2228514552116394, 0.06000308319926262, 0.012696871688698439, -0.023365535364092693, 0.032337502160501616
240422, 0.6119581460952759, -1.0203057527542114, -13.382003784179688, -0.01676681451499462, 0.008412045426666737, 1.001028299331665, 0.6561660766601562, 9362.0, 28835.0, 32767.0, 9362.0, 0.0, 8.310744285583496, -0.1779259741306305, 0.2228306531906128, 0.05997588858008385, 0.016292231254780614, -0.011530191497769238, 0.02004325813950879
240432, 0.6115490198135376, -1.0180197954177856, -13.38284683227539, -0.01589418202638626, 0.011491255834698677, 1.0020956993103027, 0.7682571411132812, 9362.0, 28835.0, 32767.0, 9362.0, 0.0, 8.310744285583496, -0.17793069779872894, 0.2228398472070694, 0.06000380218029022, 0.019317390937139016, -0.014393571774974134, 0.023035808018830848
240442, 0.6139454245567322, -1.0187203884124756, -13.382722854614258, -0.015484241768717766, 0.010996993631124496, 1.0024372339248657, 0.7682571411132812, 9362.0, 28835.0, 32767.0, 9362.0, 0.0, 8.33057975769043, -0.1779458224773407, 0.22283855080604553, 0.059995803982019424, 0.025153978306721947, -0.02531727439259157, 0.03571291571598955
240452, 0.6142604351043701, -1.0176023244857788, -13.38300895690918, -0.01625378429889679, 0.012425512075424194, 1.0007082223892212, 0.7873916625976562, 9362.0, 28835.0, 32767.0, 9362.0, 0.0, 8.33057975769043, -0.1779325157403946, 0.2228301614522934, 0.05999921262264252, 0.01703385856405788, -0.011390685612809648, 0.03440197399347068
240462, 0.614885687828064, -1.0199061632156372, -13.383967399597168, -0.014062964357435703, 0.009755044244229794, 1.0009304285049438, 0.7873916625976562, 9362.0, 28835.0, 32767.0, 9362.0, 0.0, 8.33057975769043, -0.17793729901313782, 0.22283600270748138, 0.05998324230313301, 0.02035603083720187, -0.0179264910869108, 0.030248583115157355
240472, 0.613980770111084, -1.020210862159729, -13.384671211242676, -0.015623108483850956, 0.010790660046041012, 0.9992190599441528, 0.7682571411132812, 9362.0, 28835.0, 32767.0, 9362.0, 0.0, 8.33057975769043, -0.17792800068855286, 0.2228356897830963, 0.05999717116355896, 0.023098663770674193, -0.015065071490681703, 0.022933596677633578
240482, 0.6149671077728271, -1.0223313570022583, -13.38534927368164, -0.018010545521974564, 0.009960377588868141, 1.0017133951187134, 0.7682571411132812, 9362.0, 28835.0, 32767.0, 9362.0, 0.0, 8.310744285583496, -0.17793802917003632, 0.22284425795078278, 0.05997954681515694, 0.019753372286959794, -0.018409113307001235, 0.038752177915954394
240492, 0.6147769093513489, -1.0225937366485596, -13.387332916259766, -0.01734129711985588, 0.010678617283701897, 1.0004169940948486, 0.7764663696289062, 9362.0, 28835.0, 32767.0, 9362.0, 0.0, 8.310744285583496, -0.1779368370771408, 0.22283035516738892, 0.06001836806535721, 0.023931811431523557, -0.01933032994520545, 0.030988804526960036
240502, 0.6150661110877991, -1.0235339403152466, -13.388910293579102, -0.01609240099787712, 0.009032743982970715, 1.0010979175567627, 0.7764663696289062, 9362.0, 28835.0, 32767.0, 9362.0, 0.0, 8.33057975769043, -0.17793329060077667, 0.22284071147441864, 0.0600007101893425, 0.011471978297678183, -0.021611052129514974, 0.04148440949048038
240512, 0.6154589056968689, -1.0235109329223633, -13.388833045959473, -0.017531583085656166, 0.010909047909080982, 1.0018528699874878, 0.7791976928710938, 9362.0, 28835.0, 32767.0, 9362.0, 0.0, 8.33057975769043, -0.17793618142604828, 0.22284284234046936, 0.06000807136297226, 0.02093319486681484, -0.01413678193162582, 0.0324348388165368
240522, 0.6150797605514526, -1.0223194360733032, -13.390822410583496, -0.01608196645975113, 0.008635692298412323, 1.0009982585906982, 0.7791976928710938, 9362.0, 28835.0, 32767.0, 9362.0, 0.0, 8.33057975769043, -0.17790885269641876, 0.2228362113237381, 0.0599796399474144, 0.010769143075520776, -0.013964176020010655, 0.02596535890029018
240532, 0.615284264087677, -1.0220938920974731, -13.392007827758789, -0.015803420916199684, 0.008152076974511147, 1.0016427040100098, 0.7928619384765625, 9362.0, 28835.0, 32767.0, 9362.0, 0.0, 8.33057975769043, -0.17792977392673492, 0.22284537553787231, 0.0600120835006237, 0.024544886526726054, -0.015963218159924963, 0.03339962528160867
240542, 0.6160227060317993, -1.0249640941619873, -13.391778945922852, -0.01868586055934429, 0.008584622293710709, 1.0011780261993408, 0.7928619384765625, 9362.0, 28835.0, 32767.0, 9362.0, 0.0, 8.33057975769043, -0.17792123556137085, 0.2228461354970932, 0.059962548315525055, 0.010958758203405892, -0.02383890349190665, 0.0273808018441929
240552, 0.6142427921295166, -1.0236752033233643, -13.39250659942627, -0.016870757564902306, 0.009432678110897541, 1.001504898071289, 0.749114990234375, 9362.0, 28835.0, 32767.0, 9362.0, 0.0, 8.33057975769043, -0.17791971564292908, 0.2228400707244873, 0.05999740585684776, 0.016776069950921502, -0.022270548048737737, 0.031586368946835516
240562, 0.6138549447059631, -1.0244640111923218, -13.39539909362793, -0.016322923824191093, 0.010330989956855774, 1.003769874572754, 0.749114990234375, 9362.0, 28835.0, 32767.0, 9362.0, 0.0, 8.33057975769043, -0.17794854938983917, 0.22284390032291412, 0.06001408398151398, 0.020293026196892366, -0.018162471895664112, 0.032324921864336276
240572, 0.6135779619216919, -1.0236073732376099, -13.395523071289062, -0.016307882964611053, 0.00999082624912262, 1.0028131008148193, 0.71630859375, 9362.0, 28835.0, 32767.0, 9362.0, 0.0, 8.33057975769043, -0.17795363068580627, 0.222859725356102, 0.06000661104917526, 0.01745216143670438, -0.02576728233890435, 0.028288432857417643
240582, 0.613605260848999, -1.0254970788955688, -13.3948974609375, -0.017478447407484055, 0.010878468863666058, 1.0021861791610718, 0.71630859375, 9362.0, 28835.0, 32767.0, 9362.0, 0.0, 8.310744285583496, -0.17792895436286926, 0.22284084558486938, 0.05998379364609718, 0.016504094397155947, -0.011225974188505461, 0.029484314263373147
240592, 0.6126461625099182, -1.0260037183761597, -13.395756721496582, -0.015719622373580933, 0.01058769691735506, 1.0013718605041504, 0.70263671875, 9362.0, 28835.0, 32767.0, 9362.0, 0.0, 8.310744285583496, -0.1779428869485855, 0.222850039601326, 0.06001831591129303, 0.021501672573461736, -0.02442938948996698, 0.03363068707217869
240602, 0.6128374934196472, -1.0259230136871338, -13.396939277648926, -0.018158264458179474, 0.011421809904277325, 1.0031406879425049, 0.70263671875, 9362.0, 28835.0, 32767.0, 9362.0, 0.0, 8.33057975769043, -0.17793554067611694, 0.22283987700939178, 0.05996713414788246, 0.014676070798724737, -0.011457390521371735, 0.03114932230059806
240612, 0.612104058265686, -1.026320219039917, -13.397818565368652, -0.01717267744243145, 0.010374018922448158, 1.0036368370056152, 0.6807632446289062, 9362.0, 28835.0, 32767.0, 9362.0, 0.0, 8.33057975769043, -0.1779191792011261, 0.22283202409744263, 0.05997967720031738, 0.005711749079130676, -0.01085544405199812, 0.029326583025197854
240622, 0.6113788485527039, -1.0264606475830078, -13.400398254394531, -0.015984047204256058, 0.010302193462848663, 1.001529574394226, 0.6807632446289062, 9362.0, 28835.0, 32767.0, 9362.0, 0.0, 8.33057975769043, -0.17794248461723328, 0.22285257279872894, 0.06000436469912529, 0.01112254792406225, -0.014228747044398915, 0.032755351515149904
240632, 0.6110333204269409, -1.0271750688552856, -13.401524543762207, -0.016059108078479767, 0.010919054038822651, 1.0021727085113525, 0.628814697265625, 9362.0, 28835.0, 32767.0, 9362.0, 0.0, 8.33057975769043, -0.17792965471744537, 0.22283925116062164, 0.06001793593168259, 0.016922827187342646, -0.01761409195776764, 0.028942032298850322
240642, 0.6109971404075623, -1.0287126302719116, -13.401678085327148, -0.018709048628807068, 0.009177847765386105, 1.001776933670044, 0.628814697265625, 9362.0, 28835.0, 32767.0, 9362.0, 0.0, 8.33057975769043, -0.17793558537960052, 0.22283366322517395, 0.06001973897218704, 0.016067146937940823, -0.013121656523395586, 0.031520336180391975
240652, 0.6123492121696472, -1.0294212102890015, -13.401801109313965, -0.017580406740307808, 0.010234704241156578, 1.00227952003479, 0.5823440551757812, 9362.0, 28835.0, 32767.0, 9362.0, 0.0, 8.33057975769043, -0.17793111503124237, 0.22285301983356476, 0.059979695826768875, 0.02231575355000169, -0.012955550377938607, 0.03143086055986185
240662, 0.612311065196991, -1.0296211242675781, -13.403072357177734, -0.01657697558403015, 0.010653250850737095, 1.0004777908325195, 0.5823440551757812, 9362.0, 28835.0, 32767.0, 9362.0, 0.0, 8.33057975769043, -0.17793087661266327, 0.22283169627189636, 0.05999363213777542, 0.017485102123563162, -0.0177639121052664, 0.022899773896177675
240672, 0.6122227907180786, -1.0292316675186157, -13.402934074401855, -0.015907665714621544, 0.010516848415136337, 1.0000633001327515, 0.5331268310546875, 9362.0, 28835.0, 32767.0, 9362.0, 0.0, 8.33057975769043, -0.17793825268745422, 0.22284428775310516, 0.060017481446266174, 0.016287398837887188, -0.02466942638224623, 0.033008511189411366
240682, 0.6125931143760681, -1.029138207435608, -13.403900146484375, -0.016604505479335785, 0.010681301355361938, 1.0018391609191895, 0.5331268310546875, 9362.0, 28835.0, 32767.0, 9362.0, 0.0, 8.33057975769043, -0.17792531847953796, 0.22284072637557983, 0.06000266224145889, 0.015514573560070768, -0.01611278406315364, 0.03196566429428533
240692, 0.6117458939552307, -1.0276124477386475, -13.404459953308105, -0.016303308308124542, 0.009844277054071426, 1.0014816522598267, 0.5222015380859375, 9362.0, 28835.0, 32767.0, 9362.0, 0.0, 8.33057975769043, -0.17792809009552002, 0.2228359431028366, 0.05999302864074707, 0.016112359199983578, -0.010602722555660193, 0.031680340842329936
240702, 0.6100473403930664, -1.026512622833252, -13.405980110168457, -0.015201222151517868, 0.009147003293037415, 1.003104567527771, 0.5222015380859375, 9362.0, 28835.0, 32767.0, 9362.0, 0.0, 8.33057975769043, -0.17792564630508423, 0.22285200655460358, 0.05998918041586876, 0.01955318685849505, -0.020978511576288383, 0.031823393524509545
240712, 0.6093289852142334, -1.0266364812850952, -13.407426834106445, -0.01538982056081295, 0.009161220863461494, 1.0020554065704346, 0.5550003051757812, 9362.0, 28835.0, 32767.0, 9362.0, 0.0, 8.33057975769043, -0.17793656885623932, 0.222842738032341, 0.05999350920319557, 0.018193099004938793, -0.019439136800826873, 0.02662184935172109
240722, 0.6103493571281433, -1.0257576704025269, -13.408604621887207, -0.01640142872929573, 0.011714172549545765, 1.0026628971099854, 0.5550003051757812, 9362.0, 28835.0, 32767.0, 9362.0, 0.0, 8.310744285583496, -0.17790816724300385, 0.22281628847122192, 0.05998994782567024, 0.009857027200665083, -0.01412630216384514, 0.025081800425201747
240732, 0.6107449531555176, -1.0250517129898071, -13.409551620483398, -0.016823111101984978, 0.011889390647411346, 1.0034178495407104, 0.604217529296875, 9362.0, 28835.0, 32767.0, 9362.0, 0.0, 8.33057975769043, -0.1779259443283081, 0.22285352647304535, 0.05999432131648064, 0.017376648777775415, -0.014150576092930578, 0.02514916497943127
240742, 0.608909547328949, -1.025428056716919, -13.410982131958008, -0.017818361520767212, 0.010306481271982193, 1.0004247426986694, 0.604217529296875, 9362.0, 28835.0, 32767.0, 9362.0, 0.0, 8.33057975769043, -0.17791442573070526, 0.22283267974853516, 0.05999787896871567, 0.012907239733496698, -0.005000563997839436, 0.02926765048259758
240752, 0.6087046265602112, -1.025299310684204, -13.411392211914062, -0.017250049859285355, 0.010004662908613682, 1.002981185913086, 0.65069580078125, 9362.0, 28835.0, 32767.0, 9362.0, 0.0, 8.33057975769043, -0.1779119372367859, 0.22282558679580688, 0.0599961057305336, 0.018064580248618508, -0.016071966214866507, 0.027449708631480944
240762, 0.6098255515098572, -1.0279042720794678, -13.414412498474121, -0.016411438584327698, 0.010771060362458229, 1.001603126525879, 0.65069580078125, 9362.0, 28835.0, 32767.0, 9362.0, 0.0, 8.33057975769043, -0.17791295051574707, 0.2228446751832962, 0.059992995113134384, 0.023896378637500465, -0.011567978023663272, 0.03384629666367231
240772, 0.6106176972389221, -1.0287786722183228, -13.414422988891602, -0.015923060476779938, 0.010653888806700706, 1.0002000331878662, 0.6753005981445312, 9362.0, 28835.0, 32767.0, 9362.0, 0.0, 8.33057975769043, -0.17792995274066925, 0.2228306531906128, 0.05999558046460152, 0.011620970731158193, -0.008441268319188566, 0.030979180396455985
240782, 0.6112127900123596, -1.027672529220581, -13.415017127990723, -0.014092884957790375, 0.011089175939559937, 1.0010576248168945, 0.6753005981445312, 9362.0, 28835.0, 32767.0, 9362.0, 0.0, 8.33057975769043, -0.17794442176818848, 0.2228432148694992, 0.0599922239780426, 0.021613985453744104, -0.024446218222720972, 0.033324149901668064
240792, 0.6097955703735352, -1.0265508890151978, -13.416132926940918, -0.014653594233095646, 0.012484331615269184, 1.001418113708496, 0.6725692749023438, 9362.0, 28835.0, 32767.0, 9362.0, 0.0, 8.310744285583496, -0.17792357504367828, 0.22284595668315887, 0.060010362416505814, 0.016681506432106183, -0.019699093657607136, 0.03133233191554869
240802, 0.6114446520805359, -1.0260435342788696, -13.416607856750488, -0.014780553989112377, 0.011355684138834476, 1.0023553371429443, 0.6725692749023438, 9362.0, 28835.0, 32767.0, 9362.0, 0.0, 8.33057975769043, -0.17793866991996765, 0.22283917665481567, 0.06000833213329315, 0.014806282412074084, -0.018556967161487137, 0.029860896191813896
240812, 0.6110329627990723, -1.026273488998413, -13.417510032653809, -0.014419042505323887, 0.009217897430062294, 1.0013165473937988, 0.710845947265625, 9362.0, 28835.0, 32767.0, 9362.0, 0.0, 8.33057975769043, -0.17792095243930817, 0.22282682359218597, 0.059979818761348724, 0.0203756543400647, -0.007415498980890334, 0.03004724935893672
240822, 0.6100260019302368, -1.0252363681793213, -13.417192459106445, -0.015452336519956589, 0.009798303246498108, 1.0027635097503662, 0.710845947265625, 9362.0, 28835.0, 32767.0, 9362.0, 0.0, 8.33057975769043, -0.17792338132858276, 0.22283707559108734, 0.05999771133065224, 0.023178227099967537, -0.021091341748359582, 0.03465809450048012
240832, 0.6092448234558105, -1.0248435735702515, -13.418249130249023, -0.014992457814514637, 0.008737636730074883, 1.0035407543182373, 0.74365234375, 9362.0, 28835.0, 32767.0, 9362.0, 0.0, 8.310744285583496, -0.1779358685016632, 0.22285118699073792, 0.05999263748526573, 0.021573255586710555, -0.019812112625828604, 0.029609408389621908
240842, 0.6093155145645142, -1.0241750478744507, -13.419683456420898, -0.016476519405841827, 0.0095246946439147, 1.0025851726531982, 0.74365234375, 9362.0, 28835.0, 32767.0, 9362.0, 0.0, 8.33057975769043, -0.17793257534503937, 0.2228427231311798, 0.060006283223629, 0.019690864331769326, -0.017306104623202145, 0.032259423893983855
240852, 0.6107043027877808, -1.0246660709381104, -13.4209623336792, -0.016393862664699554, 0.010091094300150871, 1.001265287399292, 0.7545852661132812, 9362.0, 28835.0, 32767.0, 9362.0, 0.0, 8.33057975769043, -0.17792567610740662, 0.22284112870693207, 0.06000721454620361, 0.018142422287896722, -0.021173016680705814, 0.03089727666476133
240862, 0.6087418794631958, -1.0241426229476929, -13.422473907470703, -0.01517343707382679, 0.010714702308177948, 1.000078797340393, 0.7545852661132812, 9362.0, 28835.0, 32767.0, 9362.0, 0.0, 8.33057975769043, -0.1779143363237381, 0.22283095121383667, 0.059991322457790375, 0.011127597592246333, -0.01261812677813623, 0.02755090350375467
240872, 0.609641969203949, -1.0237846374511719, -13.422911643981934, -0.016501495614647865, 0.01030625868588686, 1.0011593103408813, 0.7873916625976562, 9362.0, 28835.0, 32767.0, 9362.0, 0.0, 8.33057975769043, -0.1779223084449768, 0.22283019125461578, 0.05999879911541939, 0.014698196626571755, -0.01779194156392805, 0.035419077806987595
240882, 0.6095949411392212, -1.0250897407531738, -13.423725128173828, -0.017203422263264656, 0.010529984720051289, 1.0017036199569702, 0.7873916625976562, 9362.0, 28835.0, 32767.0, 9362.0, 0.0, 8.310744285583496, -0.17792509496212006, 0.2228444665670395, 0.060008369386196136, 0.015468439503435566, -0.019322274617167068, 0.03407149695012679
240892, 0.6087115406990051, -1.0242878198623657, -13.424598693847656, -0.0154900923371315, 0.009436652064323425, 1.0002379417419434, 0.74365234375, 9362.0, 28835.0, 32767.0, 9362.0, 0.0, 8.33057975769043, -0.17793172597885132, 0.2228326052427292, 0.05999256670475006, 0.018924908608886817, -0.026854596689531718, 0.031658613575917365
240902, 0.6076403856277466, -1.0226736068725586, -13.425652503967285, -0.015117008239030838, 0.009832296520471573, 1.0015085935592651, 0.74365234375, 9362.0, 28835.0, 32767.0, 9362.0, 0.0, 8.33057975769043, -0.17791180312633514, 0.2228449136018753, 0.06000195071101189, 0.004888419481152283, -0.01884922042373205, 0.02549629165241742
240912, 0.6083888411521912, -1.0232716798782349, -13.42686653137207, -0.01610906794667244, 0.011921940371394157, 1.0026954412460327, 0.710845947265625, 9362.0, 28835.0, 32767.0, 9362.0, 0.0, 8.310744285583496, -0.17793095111846924, 0.2228395938873291, 0.059991396963596344, 0.015038286068522486, -0.016596690070372233, 0.03846374399445873
240922, 0.6072816848754883, -1.0233227014541626, -13.427146911621094, -0.01619016006588936, 0.012330281548202038, 1.000690221786499, 0.710845947265625, 9362.0, 28835.0, 32767.0, 9362.0, 0.0, 8.310744285583496, -0.1779351681470871, 0.22284986078739166, 0.05999939516186714, 0.0205995422669845, -0.022464230230895055, 0.024015175357621897
240932, 0.6093228459358215, -1.0247020721435547, -13.428976058959961, -0.016347333788871765, 0.011482896283268929, 1.0015311241149902, 0.6753005981445312, 9362.0, 28835.0, 32767.0, 9362.0, 0.0, 8.33057975769043, -0.17792870104312897, 0.2228519171476364, 0.05999959260225296, 0.021799284188691908, -0.02095529296681775, 0.029701359385895444
240942, 0.6091330051422119, -1.0229448080062866, -13.42923355102539, -0.01727592572569847, 0.008641981519758701, 1.003020167350769, 0.6753005981445312, 9362.0, 28835.0, 32767.0, 9362.0, 0.0, 8.33057975769043, -0.17793260514736176, 0.22283360362052917, 0.0600309781730175, 0.006536237106056215, -0.01755451051232626, 0.03805168871545076
240952, 0.6098601818084717, -1.022351622581482, -13.430349349975586, -0.016243426129221916, 0.009221184998750687, 1.0022339820861816, 0.6807632446289062, 9362.0, 28835.0, 32767.0, 9362.0, 0.0, 8.33057975769043, -0.17792926728725433, 0.22283805906772614, 0.06001328304409981, 0.011867919866551873, -0.021456469373958953, 0.03383794907393929
240962, 0.6111956834793091, -1.0230351686477661, -13.430456161499023, -0.01662716269493103, 0.011454790830612183, 1.001765251159668, 0.6807632446289062, 9362.0, 28835.0, 32767.0, 9362.0, 0.0, 8.33057975769043, -0.17792214453220367, 0.22284124791622162, 0.060008350759744644, 0.01480550668657341, -0.014556615342257828, 0.030260130576749738
240972, 0.6118261218070984, -1.0234827995300293, -13.431744575500488, -0.016296200454235077, 0.00988727156072855, 1.0028958320617676, 0.6534271240234375, 9362.0, 28835.0, 32767.0, 9362.0, 0.0, 8.33057975769043, -0.17792551219463348, 0.22284376621246338, 0.06002297252416611, 0.013268795027003772, -0.019154588639054282, 0.03305760956880304
240982, 0.6114985346794128, -1.0231318473815918, -13.432561874389648, -0.014943473972380161, 0.009936654940247536, 1.0040299892425537, 0.6534271240234375, 9362.0, 28835.0, 32767.0, 9362.0, 0.0, 8.33057975769043, -0.17792263627052307, 0.22284649312496185, 0.05999014899134636, 0.019752551762984173, -0.011614053455474505, 0.03648145777310708
240992, 0.6115594506263733, -1.0233683586120605, -13.433211326599121, -0.015933547168970108, 0.009713321924209595, 1.002411961555481, 0.6889724731445312, 9362.0, 28835.0, 32767.0, 9362.0, 0.0, 8.33057975769043, -0.17792561650276184, 0.22283895313739777, 0.05998222902417183, 0.013380021552505988, -0.012920915740465944, 0.03784798881903985
241002, 0.6112014651298523, -1.0236537456512451, -13.431940078735352, -0.016256220638751984, 0.00884802546352148, 1.0025099515914917, 0.6889724731445312, 9362.0, 28835.0, 32767.0, 9362.0, 0.0, 8.33057975769043, -0.17793451249599457, 0.22283948957920074, 0.06003424897789955, 0.015951501211078235, -0.013732764824595733, 0.03045646246916566
241012, 0.6112372875213623, -1.0229511260986328, -13.43420696258545, -0.01635456085205078, 0.010255270637571812, 1.002416729927063, 0.6124191284179688, 9362.0, 28835.0, 32767.0, 9362.0, 0.0, 8.33057975769043, -0.1779184341430664, 0.22283756732940674, 0.05998726189136505, 0.02195974112584165, -0.006662733465674364, 0.037367546148312634
241022, 0.6115135550498962, -1.0233350992202759, -13.435067176818848, -0.01694823056459427, 0.011258242651820183, 1.0012710094451904, 0.6124191284179688, 9362.0, 28835.0, 32767.0, 9362.0, 0.0, 8.33057975769043, -0.17792673408985138, 0.22284050285816193, 0.05999639257788658, 0.014732042128105102, -0.015529727738510246, 0.027299976620906243
241032, 0.6112459897994995, -1.0236128568649292, -13.436306953430176, -0.015271535143256187, 0.011423435993492603, 1.0019872188568115, 0.6670989990234375, 9362.0, 28835.0, 32767.0, 9362.0, 0.0, 8.33057975769043, -0.1779073178768158, 0.22283858060836792, 0.05995980277657509, 0.015665895292401536, -0.015983163003284062, 0.032902255648641514
241042, 0.6111211180686951, -1.0233123302459717, -13.436338424682617, -0.018115241080522537, 0.00824664905667305, 1.0019677877426147, 0.6670989990234375, 9362.0, 28835.0, 32767.0, 9362.0, 0.0, 8.33057975769043, -0.17791523039340973, 0.22283180058002472, 0.059977415949106216, 0.014945047611504099, -0.0036694942152735166, 0.021875763296177072
241052, 0.6127949357032776, -1.023811936378479, -13.437883377075195, -0.01786264032125473, 0.00911415833979845, 1.0018177032470703, 0.6753005981445312, 9362.0, 28835.0, 32767.0, 9362.0, 0.0, 8.33057975769043, -0.17792032659053802, 0.2228458970785141, 0.06000601872801781, 0.016998702585806196, -0.023123555013938812, 0.027316472202076832
241062, 0.612694501876831, -1.0241059064865112, -13.439477920532227, -0.01809268817305565, 0.011571541428565979, 1.0020869970321655, 0.6753005981445312, 9362.0, 28835.0, 32767.0, 9362.0, 0.0, 8.33057975769043, -0.1779118776321411, 0.22282814979553223, 0.05998718738555908, 0.011931921129398634, -0.01567809886509508, 0.022676302803343925
241072, 0.6128840446472168, -1.0236551761627197, -13.43998908996582, -0.018115848302841187, 0.01018594205379486, 1.002947211265564, 0.6698379516601562, 9362.0, 28835.0, 32767.0, 9362.0, 0.0, 8.33057975769043, -0.17791861295700073, 0.22283658385276794, 0.05997820198535919, 0.01169965920316247, -0.009176591379656429, 0.03693673036995487
241082, 0.6112282276153564, -1.022902250289917, -13.44097900390625, -0.014901857823133469, 0.010716889053583145, 1.0031287670135498, 0.6698379516601562, 9362.0, 28835.0, 32767.0, 9362.0, 0.0, 8.33057975769043, -0.17792651057243347, 0.22282542288303375, 0.0600135512650013, 0.01333648123485353, -0.017756776197671797, 0.03307995374334116
241092, 0.6127361059188843, -1.0220779180526733, -13.442475318908691, -0.015504078939557076, 0.01113350223749876, 1.0016292333602905, 0.642486572265625, 9362.0, 28835.0, 32767.0, 9362.0, 0.0, 8.33057975769043, -0.17792581021785736, 0.2228323221206665, 0.059966906905174255, 0.011799123386022577, -0.016921152213569712, 0.02799434876071464
241102, 0.612388551235199, -1.020809292793274, -13.443741798400879, -0.01833271235227585, 0.010229923762381077, 0.9999309778213501, 0.642486572265625, 9362.0, 28835.0, 32767.0, 9362.0, 0.0, 8.33057975769043, -0.17793360352516174, 0.22284576296806335, 0.059987932443618774, 0.023956797290737127, -0.016493721324508215, 0.03937430402597182
241112, 0.6145747900009155, -1.0212572813034058, -13.444984436035156, -0.017552968114614487, 0.011987067759037018, 1.0004966259002686, 0.590545654296875, 9362.0, 28835.0, 32767.0, 9362.0, 0.0, 8.310744285583496, -0.17793023586273193, 0.22284439206123352, 0.05999920517206192, 0.007626387113358884, -0.014332622652034388, 0.032845430235943614
241122, 0.6135151982307434, -1.0229361057281494, -13.445730209350586, -0.01652795635163784, 0.012051165103912354, 1.0021981000900269, 0.590545654296875, 9362.0, 28835.0, 32767.0, 9362.0, 0.0, 8.310744285583496, -0.17791204154491425, 0.2228439748287201, 0.06001056358218193, 0.008608453009439172, -0.012650536764937215, 0.0325064803636986
241132, 0.6150285601615906, -1.024021029472351, -13.445796966552734, -0.01649746671319008, 0.011315979063510895, 1.0024166107177734, 0.5960159301757812, 9362.0, 28835.0, 32767.0, 9362.0, 0.0, 8.33057975769043, -0.17792390286922455, 0.22284825146198273, 0.059994250535964966, 0.016748911197005993, -0.019264912765834197, 0.03366916741263073
241142, 0.6142389178276062, -1.0255812406539917, -13.446049690246582, -0.015580456703901291, 0.009735883213579655, 1.0038326978683472, 0.5960159301757812, 9362.0, 28835.0, 32767.0, 9362.0, 0.0, 8.33057975769043, -0.17792320251464844, 0.22284425795078278, 0.060004521161317825, 0.015395565600911926, -0.022804093415516036, 0.03485395181267622
241152, 0.6139504313468933, -1.0259989500045776, -13.447205543518066, -0.01684851013123989, 0.008680453523993492, 1.0040754079818726, 0.6206207275390625, 9362.0, 28835.0, 32767.0, 9362.0, 0.0, 8.310744285583496, -0.17791587114334106, 0.22282567620277405, 0.05999499186873436, 0.013959008474611007, -0.013677925911906641, 0.03951098229168748
241162, 0.6142852902412415, -1.0246572494506836, -13.446088790893555, -0.014832534827291965, 0.010523771867156029, 1.0018978118896484, 0.6206207275390625, 9362.0, 28835.0, 32767.0, 9362.0, 0.0, 8.33057975769043, -0.17792364954948425, 0.22285397350788116, 0.05999547988176346, 0.021760679462409643, -0.01308798022148494, 0.04214662178394733
241172, 0.6143186688423157, -1.0247802734375, -13.447657585144043, -0.014414193108677864, 0.010711485520005226, 1.0008487701416016, 0.631561279296875, 9362.0, 28835.0, 32767.0, 9362.0, 0.0, 8.310744285583496, -0.17790904641151428, 0.22284293174743652, 0.05997132509946823, 0.020216162680082583, -0.003985661088137249, 0.039141407584286046
241182, 0.6143479347229004, -1.0257768630981445, -13.448897361755371, -0.015301994979381561, 0.009193964302539825, 1.0011546611785889, 0.631561279296875, 9362.0, 28835.0, 32767.0, 9362.0, 0.0, 8.310744285583496, -0.17792969942092896, 0.22284403443336487, 0.06001394987106323, 0.014219958235153119, -0.022054011207245594, 0.03291450528738953
241192, 0.6130974888801575, -1.024957299232483, -13.449070930480957, -0.01416238583624363, 0.010976023972034454, 1.0009067058563232, 0.6479568481445312, 9362.0, 28835.0, 32767.0, 9362.0, 0.0, 8.33057975769043, -0.17792680859565735, 0.22283925116062164, 0.06000606343150139, 0.01555783819047848, -0.017358414171440018, 0.04191110309309097
241202, 0.612953782081604, -1.0263056755065918, -13.448612213134766, -0.017948267981410027, 0.009981240145862103, 1.0030245780944824, 0.6479568481445312, 9362.0, 28835.0, 32767.0, 9362.0, 0.0, 8.33057975769043, -0.17794276773929596, 0.2228417992591858, 0.06001085788011551, 0.019326551783249393, -0.016895169833276213, 0.030369298654427775
241212, 0.6139386296272278, -1.0298097133636475, -13.449423789978027, -0.01712130196392536, 0.010600889101624489, 1.0020512342453003, 0.628814697265625, 9362.0, 28835.0, 32767.0, 9362.0, 0.0, 8.310744285583496, -0.17791366577148438, 0.22282779216766357, 0.05997678264975548, 0.007325966568086207, -0.01543674353038682, 0.032877841996723466
241222, 0.6146045923233032, -1.0296857357025146, -13.45107650756836, -0.01792304962873459, 0.011052873916924, 1.0014303922653198, 0.628814697265625, 9362.0, 28835.0, 32767.0, 9362.0, 0.0, 8.33057975769043, -0.1779353767633438, 0.2228453904390335, 0.05999680981040001, 0.01860462683256571, -0.022113494052518945, 0.03284706409855188
241232, 0.6149685978889465, -1.0274256467819214, -13.452001571655273, -0.017153050750494003, 0.010039053857326508, 1.001348614692688, 0.6260833740234375, 9362.0, 28835.0, 32767.0, 9362.0, 0.0, 8.33057975769043, -0.1779225468635559, 0.22284527122974396, 0.05997934192419052, 0.013547711837747795, -0.01898128603770033, 0.030457842727284596
241242, 0.6140879392623901, -1.027835488319397, -13.452862739562988, -0.01616622693836689, 0.007351159118115902, 1.000474452972412, 0.6260833740234375, 9362.0, 28835.0, 32767.0, 9362.0, 0.0, 8.33057975769043, -0.1779281497001648, 0.22282831370830536, 0.05999976769089699, 0.01522681713262384, -0.014749263480041463, 0.031314461898439255
241252, 0.6127879023551941, -1.0275704860687256, -13.454312324523926, -0.0152174923568964, 0.011530772782862186, 0.999577522277832, 0.5960159301757812, 9362.0, 28835.0, 32767.0, 9362.0, 0.0, 8.33057975769043, -0.1779206395149231, 0.2228395938873291, 0.06000208109617233, 0.01233073310779863, -0.008247783350071813, 0.029662623392246658
241262, 0.613218367099762, -1.02739679813385, -13.455623626708984, -0.016306119039654732, 0.011970794759690762, 1.0019526481628418, 0.5960159301757812, 9362.0, 28835.0, 32767.0, 9362.0, 0.0, 8.33057975769043, -0.17793111503124237, 0.22284328937530518, 0.060011204332113266, 0.016487909361774307, -0.021284045452631517, 0.03413508116838127
241272, 0.6123265027999878, -1.0288904905319214, -13.456036567687988, -0.01728914864361286, 0.011314425617456436, 1.001105785369873, 0.6014785766601562, 9362.0, 28835.0, 32767.0, 9362.0, 0.0, 8.310744285583496, -0.17792870104312897, 0.22283564507961273, 0.06000238284468651, 0.01972157196616535, -0.021336379766637492, 0.035742981042170135
241282, 0.6116172671318054, -1.0303385257720947, -13.457087516784668, -0.01631438359618187, 0.011207306757569313, 1.0008034706115723, 0.6014785766601562, 9362.0, 28835.0, 32767.0, 9362.0, 0.0, 8.33057975769043, -0.17793434858322144, 0.22283919155597687, 0.05999055132269859, 0.019946281815557115, -0.01616905325204243, 0.03851945664640544
241292, 0.6125677824020386, -1.0296344757080078, -13.458648681640625, -0.01619875617325306, 0.0116351880133152, 0.999990701675415, 0.604217529296875, 9362.0, 28835.0, 32767.0, 9362.0, 0.0, 8.33057975769043, -0.17792658507823944, 0.2228376269340515, 0.05996646359562874, 0.023757909809515736, -0.023062972714512853, 0.038441503674227676
241302, 0.6124560832977295, -1.0290857553482056, -13.45926284790039, -0.015113092958927155, 0.012058194726705551, 1.0013571977615356, 0.604217529296875, 9362.0, 28835.0, 32767.0, 9362.0, 0.0, 8.33057975769043, -0.17792053520679474, 0.22284309566020966, 0.06000164896249771, 0.013505576287193122, -0.00995585235841645, 0.031269998383253256
241312, 0.612393319606781, -1.0286253690719604, -13.46134090423584, -0.014724095351994038, 0.01066717877984047, 1.0012940168380737, 0.604217529296875, 9362.0, 28835.0, 32767.0, 9362.0, 0.0, 8.310744285583496, -0.17793041467666626, 0.22283998131752014, 0.05997958034276962, 0.011451353668993745, -0.01335086563503296, 0.031192144185742343
241322, 0.612156093120575, -1.0278115272521973, -13.46230411529541, -0.015098825097084045, 0.009494378231465816, 1.001589059829712, 0.604217529296875, 9362.0, 28835.0, 32767.0, 9362.0, 0.0, 8.33057975769043, -0.17809171974658966, 0.2229827493429184, 0.06033600494265556, 0.056080723356947366, -0.07189154881803006, 0.029315438145020477
241332, 0.6119163632392883, -1.0284260511398315, -13.463513374328613, -0.016377640888094902, 0.00948134995996952, 1.0025560855865479, 0.5604705810546875, 9362.0, 28835.0, 32767.0, 9362.0, 0.0, 8.33057975769043, -0.17792466282844543, 0.22283020615577698, 0.059981152415275574, 0.013090674744211196, -0.012399466397056358, 0.028419847170801222
241342, 0.6115685701370239, -1.0296472311019897, -13.464770317077637, -0.017297975718975067, 0.010449988767504692, 1.0027778148651123, 0.5604705810546875, 9362.0, 28835.0, 32767.0, 9362.0, 0.0, 8.33057975769043, -0.17792066931724548, 0.22283554077148438, 0.05999287962913513, 0.01305900964048752, -0.014923428517391812, 0.026260382874822602
241352, 0.6113523244857788, -1.029064655303955, -13.465262413024902, -0.017885299399495125, 0.009046193212270737, 1.002284049987793, 0.5057907104492188, 9362.0, 28835.0, 32767.0, 9362.0, 0.0, 8.310744285583496, -0.17792202532291412, 0.22283917665481567, 0.06000158563256264, 0.006736961018992636, -0.013138218613335084, 0.036708931802083185
241362, 0.6103355884552002, -1.030206561088562, -13.466419219970703, -0.018181271851062775, 0.008120211772620678, 1.0033152103424072, 0.5057907104492188, 9362.0, 28835.0, 32767.0, 9362.0, 0.0, 8.310744285583496, -0.17792865633964539, 0.22285069525241852, 0.0599919818341732, 0.014152352161730669, -0.013362984898066088, 0.0355571725429076
241372, 0.6093514561653137, -1.030600905418396, -13.467416763305664, -0.01825394481420517, 0.008455641567707062, 1.0020971298217773, 0.5768814086914062, 9362.0, 28835.0, 32767.0, 9362.0, 0.0, 8.33057975769043, -0.17793983221054077, 0.22284629940986633, 0.05998599901795387, 0.021134393357581178, -0.017272513295353065, 0.03803072698791544
241382, 0.6086073517799377, -1.0299705266952515, -13.468844413757324, -0.015792572870850563, 0.009922945871949196, 1.0023958683013916, 0.5768814086914062, 9362.0, 28835.0, 32767.0, 9362.0, 0.0, 8.33057975769043, -0.17792770266532898, 0.22284208238124847, 0.059989072382450104, 0.01793973781426476, -0.01704687460701848, 0.03033191333375952
241392, 0.6064669489860535, -1.0304958820343018, -13.470637321472168, -0.016660328954458237, 0.008913502097129822, 1.0026884078979492, 0.5823440551757812, 9362.0, 28835.0, 32767.0, 9362.0, 0.0, 8.310744285583496, -0.177923321723938, 0.22283923625946045, 0.059991899877786636, 0.009532340771268296, -0.013575546832072405, 0.024869296637968066
241402, 0.6047708988189697, -1.0299996137619019, -13.471940040588379, -0.016142839565873146, 0.009012587368488312, 1.0039011240005493, 0.5823440551757812, 9362.0, 28835.0, 32767.0, 9362.0, 0.0, 8.310744285583496, -0.17791947722434998, 0.22283713519573212, 0.05997520312666893, 0.007447688713088389, -0.012867207319033014, 0.03143340103637914
241412, 0.6073063611984253, -1.0310417413711548, -13.473487854003906, -0.016121063381433487, 0.012178788892924786, 1.0030500888824463, 0.5796127319335938, 9362.0, 28835.0, 32767.0, 9362.0, 0.0, 8.310744285583496, -0.17792010307312012, 0.22283418476581573, 0.05999685078859329, 0.008328478541103178, -0.01766208148245596, 0.029925189493498112
241422, 0.6067242622375488, -1.0314651727676392, -13.47408676147461, -0.01567920297384262, 0.011207670904695988, 1.0016839504241943, 0.5796127319335938, 9362.0, 28835.0, 32767.0, 9362.0, 0.0, 8.310744285583496, -0.17794257402420044, 0.22284285724163055, 0.05998692288994789, 0.02146770091311037, -0.016396087872237786, 0.03644367580321115
241432, 0.6079387068748474, -1.0310500860214233, -13.475980758666992, -0.015605146065354347, 0.010965880937874317, 1.0011277198791504, 0.5194549560546875, 9362.0, 28835.0, 32767.0, 9362.0, 0.0, 8.33057975769043, -0.17794303596019745, 0.22283685207366943, 0.06001416593790054, 0.01771886475725913, -0.030403595048483112, 0.0320246282247988
241442, 0.6073983311653137, -1.0304301977157593, -13.476800918579102, -0.016563307493925095, 0.010185168124735355, 1.0022062063217163, 0.5194549560546875, 9362.0, 28835.0, 32767.0, 9362.0, 0.0, 8.33057975769043, -0.17792434990406036, 0.22284585237503052, 0.059970658272504807, 0.016625362339656138, -0.018137268730725964, 0.04069847080135377
241452, 0.6076631546020508, -1.0308725833892822, -13.477269172668457, -0.017196156084537506, 0.009832587093114853, 1.001284122467041, 0.5604705810546875, 9362.0, 28835.0, 32767.0, 9362.0, 0.0, 8.310744285583496, -0.1779380440711975, 0.22285081446170807, 0.05998382717370987, 0.01919176574355763, -0.024380410240326, 0.02808422040961228
241462, 0.6079514026641846, -1.0301154851913452, -13.478240966796875, -0.016325941309332848, 0.010898586362600327, 1.0020824670791626, 0.5604705810546875, 9362.0, 28835.0, 32767.0, 9362.0, 0.0, 8.310744285583496, -0.17792905867099762, 0.2228471040725708, 0.059954702854156494, 0.011105221935069961, -0.015126617745579551, 0.021611820327812278
241472, 0.6076710224151611, -1.0308398008346558, -13.480087280273438, -0.01802162081003189, 0.010639142245054245, 1.0006811618804932, 0.628814697265625, 9362.0, 28835.0, 32767.0, 9362.0, 0.0, 8.33057975769043, -0.1779346764087677, 0.2228451669216156, 0.06000242754817009, 0.015723761037669655, -0.020999831980645922, 0.033914983147421786
241482, 0.606521725654602, -1.030611515045166, -13.480278015136719, -0.016378961503505707, 0.008769309148192406, 1.000767469406128, 0.628814697265625, 9362.0, 28835.0, 32767.0, 9362.0, 0.0, 8.310744285583496, -0.17793774604797363, 0.22284366190433502, 0.05999886617064476, 0.021951493647004217, -0.024716299808829945, 0.039127130721971264
241492, 0.6059446334838867, -1.031258463859558, -13.482542991638184, -0.0159052312374115, 0.01091497391462326, 1.0010392665863037, 0.6014785766601562, 9362.0, 28835.0, 32767.0, 9362.0, 0.0, 8.33057975769043, -0.177925705909729, 0.2228364795446396, 0.059982169419527054, 0.013698687541506436, -0.01447980798189974, 0.03375306293351393
241502, 0.6069962978363037, -1.0318156480789185, -13.48250675201416, -0.017651595175266266, 0.011332200840115547, 1.0021497011184692, 0.6014785766601562, 9362.0, 28835.0, 32767.0, 9362.0, 0.0, 8.33057975769043, -0.17794007062911987, 0.22282764315605164, 0.06000099703669548, 0.0039421348259562035, -0.018100318280488636, 0.028008275000944733
241512, 0.6051396131515503, -1.032116413116455, -13.484580039978027, -0.017075031995773315, 0.010800540447235107, 1.0028846263885498, 0.6479568481445312, 9362.0, 28835.0, 32767.0, 9362.0, 0.0, 8.33057975769043, -0.17794547975063324, 0.22284111380577087, 0.060002557933330536, 0.017396893976672864, -0.024230906831633092, 0.03824111041132026
241522, 0.6044069528579712, -1.0316358804702759, -13.4850435256958, -0.01628781110048294, 0.010728864930570126, 1.0039435625076294, 0.6479568481445312, 9362.0, 28835.0, 32767.0, 9362.0, 0.0, 8.33057975769043, -0.17791137099266052, 0.2228195071220398, 0.05998125299811363, 0.00990397387667048, -0.008761498844933158, 0.020756187417647756
241532, 0.60572350025177, -1.0326226949691772, -13.485175132751465, -0.01673036627471447, 0.01105673797428608, 1.0021578073501587, 0.65069580078125, 9362.0, 28835.0, 32767.0, 9362.0, 0.0, 8.33057975769043, -0.17793585360050201, 0.2228374183177948, 0.05999484658241272, 0.009084629292608545, -0.022271757020888572, 0.025520089517310666
241542, 0.6035428643226624, -1.0327122211456299, -13.486449241638184, -0.016885273158550262, 0.009457794949412346, 1.0011061429977417, 0.65069580078125, 9362.0, 28835.0, 32767.0, 9362.0, 0.0, 8.33057975769043, -0.17794549465179443, 0.222844660282135, 0.05999591201543808, 0.022442433048916254, -0.01634590982743589, 0.030870111950029745
241552, 0.603884220123291, -1.0326682329177856, -13.486263275146484, -0.015949400141835213, 0.00878952443599701, 1.003546953201294, 0.6069488525390625, 9362.0, 28835.0, 32767.0, 9362.0, 0.0, 8.33057975769043, -0.17793527245521545, 0.22285176813602448, 0.05999070033431053, 0.014789419422082145, -0.017008128962089586, 0.031854660138182576
241562, 0.6024454236030579, -1.0320664644241333, -13.487099647521973, -0.016309965401887894, 0.008898800238966942, 1.0027501583099365, 0.6069488525390625, 9362.0, 28835.0, 32767.0, 9362.0, 0.0, 8.33057975769043, -0.17794112861156464, 0.222847118973732, 0.05999470129609108, 0.02224548677096975, -0.02104799205798713, 0.030146929606487405
241572, 0.602817177772522, -1.0320297479629517, -13.487083435058594, -0.015052203088998795, 0.010623793117702007, 1.0043820142745972, 0.6151580810546875, 9362.0, 28835.0, 32767.0, 9362.0, 0.0, 8.33057975769043, -0.17792145907878876, 0.2228354513645172, 0.05999121442437172, 0.019259242110126775, -0.015555109824362034, 0.03243310467140065
241582, 0.6033663749694824, -1.0314795970916748, -13.488868713378906, -0.016054460778832436, 0.010176701471209526, 1.0013575553894043, 0.6151580810546875, 9362.0, 28835.0, 32767.0, 9362.0, 0.0, 8.310744285583496, -0.17812296748161316, 0.2229968011379242, 0.060318149626255035, 0.05589383553873591, -0.07302827378887855, 0.02732357343612593
241592, 0.6029431819915771, -1.0305629968643188, -13.489155769348145, -0.017495490610599518, 0.010805195197463036, 1.002678394317627, 0.6725692749023438, 9362.0, 28835.0, 32767.0, 9362.0, 0.0, 8.33057975769043, -0.1779428869485855, 0.22283315658569336, 0.06001665070652962, 0.017789993015883285, -0.020505522621419914, 0.032904667096051034
241602, 0.6030349135398865, -1.0301705598831177, -13.489729881286621, -0.017123626545071602, 0.011350244283676147, 1.001067876815796, 0.6725692749023438, 9362.0, 28835.0, 32767.0, 9362.0, 0.0, 8.33057975769043, -0.17794761061668396, 0.22283616662025452, 0.06000322103500366, 0.010354791327755804, -0.016845155505109233, 0.032019257597154856
241612, 0.6043226718902588, -1.029461145401001, -13.490368843078613, -0.0179765447974205, 0.010780848562717438, 0.9994983673095703, 0.6124191284179688, 9362.0, 28835.0, 32767.0, 9362.0, 0.0, 8.33057975769043, -0.17792896926403046, 0.22283028066158295, 0.059992715716362, 0.01773205233094015, -0.007827549791727506, 0.02383956370832931
241622, 0.6040173172950745, -1.0295156240463257, -13.49033260345459, -0.018341945484280586, 0.011126712895929813, 1.0010217428207397, 0.6124191284179688, 9362.0, 28835.0, 32767.0, 9362.0, 0.0, 8.33057975769043, -0.17793641984462738, 0.2228407859802246, 0.06001422181725502, 0.007595431268011876, -0.018520090135950795, 0.029340415782916615
241632, 0.6037682294845581, -1.0305362939834595, -13.491385459899902, -0.01611698791384697, 0.011035018600523472, 1.0027531385421753, 0.5960159301757812, 9362.0, 28835.0, 32767.0, 9362.0, 0.0, 8.33057975769043, -0.17810678482055664, 0.22298146784305573, 0.06029139459133148, 0.059455528288209124, -0.06739635511814868, 0.026838423445647783
241642, 0.6042904853820801, -1.0295783281326294, -13.490265846252441, -0.015924300998449326, 0.010795333422720432, 1.0022163391113281, 0.5960159301757812, 9362.0, 28835.0, 32767.0, 9362.0, 0.0, 8.33057975769043, -0.17793066799640656, 0.22283174097537994, 0.059982702136039734, 0.017520134818979752, -0.013270064561567096, 0.03092506692391464
241652, 0.6031577587127686, -1.0278029441833496, -13.490853309631348, -0.01818893477320671, 0.011873165145516396, 1.0034563541412354, 0.6342926025390625, 9362.0, 28835.0, 32767.0, 9362.0, 0.0, 8.33057975769043, -0.17794351279735565, 0.222843736410141, 0.06000120937824249, 0.020766919806995417, -0.018573721368369434, 0.029261437682533496
241662, 0.6027934551239014, -1.0276364088058472, -13.491460800170898, -0.01672082394361496, 0.011824963614344597, 1.0020118951797485, 0.6342926025390625, 9362.0, 28835.0, 32767.0, 9362.0, 0.0, 8.33057975769043, -0.17792469263076782, 0.22283758223056793, 0.06000024452805519, 0.01649280868856775, -0.014649090438098256, 0.027859933554310413
241672, 0.601910412311554, -1.0290745496749878, -13.494030952453613, -0.016309252008795738, 0.011285349726676941, 1.0019721984863281, 0.6260833740234375, 9362.0, 28835.0, 32767.0, 9362.0, 0.0, 8.310744285583496, -0.177926167845726, 0.2228461503982544, 0.05995868146419525, 0.02098631002645609, -0.01749684808243046, 0.030136723991952375
241682, 0.6022182703018188, -1.029049038887024, -13.494670867919922, -0.01626358926296234, 0.010303279384970665, 1.002558946609497, 0.6260833740234375, 9362.0, 28835.0, 32767.0, 9362.0, 0.0, 8.33057975769043, -0.1779337078332901, 0.22282211482524872, 0.05997220799326897, 0.013575523234866322, -0.012399106437555929, 0.030471419356560094
241692, 0.6039243936538696, -1.0287635326385498, -13.495338439941406, -0.016589580103754997, 0.012977026402950287, 1.0013259649276733, 0.5878067016601562, 9362.0, 28835.0, 32767.0, 9362.0, 0.0, 8.33057975769043, -0.17809733748435974, 0.22297446429729462, 0.06030097231268883, 0.05082194088869943, -0.05793167122769205, 0.0261335155321175
241702, 0.604295551776886, -1.0287293195724487, -13.496577262878418, -0.017538417130708694, 0.011555777862668037, 1.0016536712646484, 0.5878067016601562, 9362.0, 28835.0, 32767.0, 9362.0, 0.0, 8.33057975769043, -0.17793093621730804, 0.22284750640392303, 0.059985533356666565, 0.016856728439480016, -0.00623844734514023, 0.028089942253786273
241712, 0.6037666201591492, -1.030836820602417, -13.498430252075195, -0.01716095209121704, 0.01045108400285244, 1.0010831356048584, 0.5467987060546875, 9362.0, 28835.0, 32767.0, 9362.0, 0.0, 8.310744285583496, -0.1779295951128006, 0.2228381186723709, 0.05998910963535309, 0.01866582433030286, -0.015296695980453023, 0.023869872897940552
241722, 0.6031093597412109, -1.0294221639633179, -13.498682975769043, -0.017583558335900307, 0.010318540036678314, 1.000797986984253, 0.5467987060546875, 9362.0, 28835.0, 32767.0, 9362.0, 0.0, 8.33057975769043, -0.17793205380439758, 0.22283180058002472, 0.059992969036102295, 0.015104496974305525, -0.016169168738940698, 0.027705384317775708
241732, 0.6029287576675415, -1.029073715209961, -13.499500274658203, -0.016517827287316322, 0.008765008300542831, 1.0007933378219604, 0.617889404296875, 9362.0, 28835.0, 32767.0, 9362.0, 0.0, 8.33057975769043, -0.17793458700180054, 0.2228366881608963, 0.059987712651491165, 0.01616455338871572, -0.0209144937591077, 0.027795065355562726
241742, 0.6030176877975464, -1.028470754623413, -13.500641822814941, -0.015582454390823841, 0.009958609938621521, 1.0016257762908936, 0.617889404296875, 9362.0, 28835.0, 32767.0, 9362.0, 0.0, 8.33057975769043, -0.177931547164917, 0.22283071279525757, 0.05998285487294197, 0.018588145271593665, -0.01319635829011645, 0.02498440519538686
241752, 0.6044327020645142, -1.028239369392395, -13.502105712890625, -0.0195438414812088, 0.010255495086312294, 1.0027015209197998, 0.6014785766601562, 9362.0, 28835.0, 32767.0, 9362.0, 0.0, 8.33057975769043, -0.1779501587152481, 0.22284521162509918, 0.06000157445669174, 0.02456504504757213, -0.022338841097024442, 0.023830863524550435
241762, 0.6056528091430664, -1.0278291702270508, -13.50175952911377, -0.017718922346830368, 0.009486518800258636, 1.0012633800506592, 0.6014785766601562, 9362.0, 28835.0, 32767.0, 9362.0, 0.0, 8.33057975769043, -0.1779312640428543, 0.2228485643863678, 0.059968456625938416, 0.024488065262924064, -0.011498585801518857, 0.032137850837653616
241772, 0.6060836315155029, -1.027616024017334, -13.502639770507812, -0.01759377121925354, 0.01072100829333067, 0.9991180896759033, 0.5577392578125, 9362.0, 28835.0, 32767.0, 9362.0, 0.0, 8.33057975769043, -0.17792275547981262, 0.22283461689949036, 0.05997713282704353, 0.013954061214486373, -0.010771716243965557, 0.030465605304497014
241782, 0.6054708957672119, -1.0268542766571045, -13.503762245178223, -0.019267627969384193, 0.011349399574100971, 1.0016075372695923, 0.5577392578125, 9362.0, 28835.0, 32767.0, 9362.0, 0.0, 8.33057975769043, -0.17792391777038574, 0.22283834218978882, 0.059991125017404556, 0.016377435166310506, -0.016017798133532324, 0.02769327350641346
241792, 0.6039920449256897, -1.0272799730300903, -13.503697395324707, -0.015496431849896908, 0.009428542107343674, 1.0029652118682861, 0.5714035034179688, 9362.0, 28835.0, 32767.0, 9362.0, 0.0, 8.33057975769043, -0.17793230712413788, 0.22284719347953796, 0.05998406186699867, 0.012927544035935207, -0.01873922509298609, 0.02166069108947734
241802, 0.6043033003807068, -1.0272372961044312, -13.504495620727539, -0.01582067832350731, 0.009230188094079494, 1.0018404722213745, 0.5714035034179688, 9362.0, 28835.0, 32767.0, 9362.0, 0.0, 8.33057975769043, -0.1779356151819229, 0.22284957766532898, 0.05998987704515457, 0.011977610979859792, -0.02047094094243107, 0.026984795916723887
241812, 0.6043941974639893, -1.0266245603561401, -13.503700256347656, -0.016452839598059654, 0.010340411216020584, 1.0012073516845703, 0.5550003051757812, 9362.0, 28835.0, 32767.0, 9362.0, 0.0, 8.33057975769043, -0.17793771624565125, 0.2228446900844574, 0.060016147792339325, 0.017305222337934148, -0.02123543776596648, 0.041329686865819865
241822, 0.6048430800437927, -1.0271235704421997, -13.503353118896484, -0.01778876781463623, 0.010469225235283375, 1.003983736038208, 0.5550003051757812, 9362.0, 28835.0, 32767.0, 9362.0, 0.0, 8.33057975769043, -0.17792992293834686, 0.22283706068992615, 0.059975653886795044, 0.013337043902196703, -0.004877503498903479, 0.040799572271850895
241832, 0.6049466729164124, -1.0262829065322876, -13.503582000732422, -0.015232640318572521, 0.011106036603450775, 1.001716136932373, 0.60968017578125, 9362.0, 28835.0, 32767.0, 9362.0, 0.0, 8.33057975769043, -0.17790991067886353, 0.22283397614955902, 0.059987880289554596, 0.007451828096721484, -0.014712003480639169, 0.026470301387508298
241842, 0.6040505170822144, -1.0255001783370972, -13.504121780395508, -0.016557149589061737, 0.011092834174633026, 0.998839259147644, 0.60968017578125, 9362.0, 28835.0, 32767.0, 9362.0, 0.0, 8.33057975769043, -0.17793196439743042, 0.22283975780010223, 0.059989798814058304, 0.014678676384812319, -0.02913875898835272, 0.029209844749825898
241852, 0.6035281419754028, -1.027722716331482, -13.504354476928711, -0.016312312334775925, 0.010068856179714203, 0.9986400008201599, 0.5878067016601562, 9362.0, 28835.0, 32767.0, 9362.0, 0.0, 8.310744285583496, -0.1779387891292572, 0.2228453904390335, 0.059994928538799286, 0.017807502506137628, -0.013454307044668212, 0.03018478998603054
241862, 0.6052011251449585, -1.028828501701355, -13.505167961120605, -0.017625359818339348, 0.011065925471484661, 1.0022172927856445, 0.5878067016601562, 9362.0, 28835.0, 32767.0, 9362.0, 0.0, 8.310744285583496, -0.17792293429374695, 0.22283512353897095, 0.06000322103500366, 0.015379639660618134, -0.014143399195006623, 0.03263189625517561
241872, 0.6065932512283325, -1.030281901359558, -13.505559921264648, -0.01768987998366356, 0.012374519370496273, 1.0011776685714722, 0.6151580810546875, 9362.0, 28835.0, 32767.0, 9362.0, 0.0, 8.33057975769043, -0.1779288649559021, 0.22283682227134705, 0.06000015139579773, 0.014758871874106669, -0.00927341430008255, 0.03569422684797291
241882, 0.6071343421936035, -1.0299142599105835, -13.506321907043457, -0.01723315194249153, 0.012277675792574883, 1.001700758934021, 0.6151580810546875, 9362.0, 28835.0, 32767.0, 9362.0, 0.0, 8.33057975769043, -0.17792999744415283, 0.222848579287529, 0.06000669300556183, 0.01849862133285186, -0.022731422585138716, 0.033953474042818975
241892, 0.6073591709136963, -1.0296159982681274, -13.506491661071777, -0.01722162961959839, 0.012049244716763496, 1.000813364982605, 0.5467987060546875, 9362.0, 28835.0, 32767.0, 9362.0, 0.0, 8.33057975769043, -0.17792268097400665, 0.2228439748287201, 0.05999026075005531, 0.011032968326855299, -0.01777854452038241, 0.03006905429906935
241902, 0.6069000959396362, -1.0312782526016235, -13.50735092163086, -0.016995228826999664, 0.00903167575597763, 1.000548243522644, 0.5467987060546875, 9362.0, 28835.0, 32767.0, 9362.0, 0.0, 8.310744285583496, -0.17793186008930206, 0.22284601628780365, 0.05999601259827614, 0.016379792692114616, -0.01610787390993096, 0.03366199677473654
241912, 0.605724036693573, -1.0302940607070923, -13.508539199829102, -0.01645122654736042, 0.008887720294296741, 1.00069260597229, 0.5385971069335938, 9362.0, 28835.0, 32767.0, 9362.0, 0.0, 8.33057975769043, -0.17790144681930542, 0.22283712029457092, 0.059971876442432404, 0.01549813679683546, -0.002576090858894986, 0.043089614725886315
241922, 0.6056489944458008, -1.0311570167541504, -13.508914947509766, -0.015874024480581284, 0.010457271710038185, 1.002838134765625, 0.5385971069335938, 9362.0, 28835.0, 32767.0, 9362.0, 0.0, 8.33057975769043, -0.1779300719499588, 0.22284437716007233, 0.05999615415930748, 0.009221602974221704, -0.013266012709237884, 0.02485142244427571
241932, 0.6058171391487122, -1.03291654586792, -13.508503913879395, -0.015141677111387253, 0.010265267454087734, 1.0030670166015625, 0.5632095336914062, 9362.0, 28835.0, 32767.0, 9362.0, 0.0, 8.33057975769043, -0.17791897058486938, 0.2228264957666397, 0.06000647693872452, 0.011824723235648354, -0.020344990678893282, 0.03162338319829337
241942, 0.607262134552002, -1.0339417457580566, -13.508604049682617, -0.0161193385720253, 0.011343538761138916, 1.0041415691375732, 0.5632095336914062, 9362.0, 28835.0, 32767.0, 9362.0, 0.0, 8.33057975769043, -0.17793454229831696, 0.22284074127674103, 0.06002656742930412, 0.015305922509210366, -0.011645643322339083, 0.03989443827253799
241952, 0.6078145503997803, -1.0325894355773926, -13.509526252746582, -0.016486844047904015, 0.011796804144978523, 1.0016615390777588, 0.497589111328125, 9362.0, 28835.0, 32767.0, 9362.0, 0.0, 8.310744285583496, -0.17808596789836884, 0.222986102104187, 0.06033250689506531, 0.058064275450262604, -0.06457538373726379, 0.02910188941560344
241962, 0.6079439520835876, -1.0339910984039307, -13.509820938110352, -0.01800234243273735, 0.012489923276007175, 1.0009758472442627, 0.497589111328125, 9362.0, 28835.0, 32767.0, 9362.0, 0.0, 8.33057975769043, -0.17792585492134094, 0.22285129129886627, 0.05998371168971062, 0.020664093381778784, -0.015242500700480832, 0.03447433768934884
241972, 0.6075743436813354, -1.0316886901855469, -13.510788917541504, -0.014624356292188168, 0.012399133294820786, 1.0008028745651245, 0.5139923095703125, 9362.0, 28835.0, 32767.0, 9362.0, 0.0, 8.310744285583496, -0.1779036521911621, 0.2228250503540039, 0.059978045523166656, 0.006138226568786884, -0.011563833920661182, 0.029819132039664062
241982, 0.6067426204681396, -1.0308752059936523, -13.512213706970215, -0.01535413321107626, 0.011290259659290314, 1.00101637840271, 0.5139923095703125, 9362.0, 28835.0, 32767.0, 9362.0, 0.0, 8.33057975769043, -0.17792578041553497, 0.22284585237503052, 0.06000464782118797, 0.010324749446612672, -0.018112264746946494, 0.03686005065259884
241992, 0.6057175397872925, -1.032005786895752, -13.514124870300293, -0.01691029779613018, 0.011522755026817322, 1.001024842262268, 0.5139923095703125, 9362.0, 28835.0, 32767.0, 9362.0, 0.0, 8.33057975769043, -0.17793585360050201, 0.2228465974330902, 0.060010652989149094, 0.020719737222296163, -0.02077602397000078, 0.029643532612303465
242002, 0.6047961711883545, -1.0336792469024658, -13.515267372131348, -0.01713232509791851, 0.010374253615736961, 1.001682996749878, 0.5139923095703125, 9362.0, 28835.0, 32767.0, 9362.0, 0.0, 8.33057975769043, -0.17794035375118256, 0.22283536195755005, 0.060015566647052765, 0.019544738465890246, -0.021988622172102623, 0.026919152225406133
242012, 0.6054947972297668, -1.0351223945617676, -13.515748023986816, -0.017057670280337334, 0.010157836601138115, 1.0016809701919556, 0.5057907104492188, 9362.0, 28835.0, 32767.0, 9362.0, 0.0, 8.33057975769043, -0.1779281049966812, 0.22283752262592316, 0.06000106781721115, 0.019182406018618987, -0.016680895116877537, 0.02662213832951859
242022, 0.605377733707428, -1.0348979234695435, -13.516188621520996, -0.01682206243276596, 0.010455716401338577, 1.0032860040664673, 0.5057907104492188, 9362.0, 28835.0, 32767.0, 9362.0, 0.0, 8.33057975769043, -0.17791691422462463, 0.22283847630023956, 0.05999628081917763, 0.01773936566594756, -0.017777948966681834, 0.03287180122858954
242032, 0.6061589121818542, -1.035649299621582, -13.516111373901367, -0.016638606786727905, 0.00920548290014267, 1.0023698806762695, 0.5276641845703125, 9362.0, 28835.0, 32767.0, 9362.0, 0.0, 8.33057975769043, -0.17793667316436768, 0.22283421456813812, 0.059983137995004654, 0.025852532443439474, -0.016846039607315788, 0.0330312622131364
242042, 0.6077890992164612, -1.0369144678115845, -13.5175142288208, -0.015871897339820862, 0.011380658484995365, 1.0010868310928345, 0.5276641845703125, 9362.0, 28835.0, 32767.0, 9362.0, 0.0, 8.310744285583496, -0.17794223129749298, 0.22284628450870514, 0.05997617170214653, 0.016354941165946258, -0.02464498271865523, 0.040414141061472474
242052, 0.6053245663642883, -1.0375627279281616, -13.51956558227539, -0.015531914308667183, 0.01018754206597805, 1.0015357732772827, 0.5796127319335938, 9362.0, 28835.0, 32767.0, 9362.0, 0.0, 8.310744285583496, -0.1779245138168335, 0.2228318303823471, 0.06000300869345665, 0.010012411435799772, -0.009777299101756398, 0.03494069029200395
242062, 0.606919527053833, -1.0369713306427002, -13.519195556640625, -0.015948565676808357, 0.00799786951392889, 1.003338098526001, 0.5796127319335938, 9362.0, 28835.0, 32767.0, 9362.0, 0.0, 8.33057975769043, -0.177920863032341, 0.22283238172531128, 0.06001414358615875, 0.007317129827771654, -0.01603761213974053, 0.024946241483586876
242072, 0.6079141497612, -1.0367286205291748, -13.519947052001953, -0.01769985817372799, 0.0102080088108778, 1.0032413005828857, 0.5522689819335938, 9362.0, 28835.0, 32767.0, 9362.0, 0.0, 8.33057975769043, -0.17792008817195892, 0.22283776104450226, 0.05999275669455528, 0.009919421932614353, -0.01470878881639237, 0.03294243576556357
242082, 0.6081667542457581, -1.0358206033706665, -13.520752906799316, -0.016727831214666367, 0.011195201426744461, 1.0029376745224, 0.5522689819335938, 9362.0, 28835.0, 32767.0, 9362.0, 0.0, 8.33057975769043, -0.17793570458889008, 0.22283779084682465, 0.05999121069908142, 0.013064203906658764, -0.021840131948891894, 0.028416219085399253
242092, 0.6081564426422119, -1.0371354818344116, -13.52301025390625, -0.016281163319945335, 0.012554757297039032, 1.0009863376617432, 0.5194549560546875, 9362.0, 28835.0, 32767.0, 9362.0, 0.0, 8.310744285583496, -0.17793165147304535, 0.22284498810768127, 0.05999613553285599, 0.02136307686173583, -0.021248426438802426, 0.02792297911357234
242102, 0.607852578163147, -1.0355168581008911, -13.523120880126953, -0.01734982430934906, 0.011203216388821602, 1.0002199411392212, 0.5194549560546875, 9362.0, 28835.0, 32767.0, 9362.0, 0.0, 8.310744285583496, -0.1779407262802124, 0.22284264862537384, 0.059973765164613724, 0.02048995955069991, -0.014919824039111518, 0.03629381551440735
242112, 0.6072981357574463, -1.034225344657898, -13.524360656738281, -0.016938261687755585, 0.010608134791254997, 1.0018081665039062, 0.47298431396484375, 9362.0, 28835.0, 32767.0, 9362.0, 0.0, 8.33057975769043, -0.17792470753192902, 0.22284188866615295, 0.05998764559626579, 0.010255079776089127, -0.02277294684267872, 0.03425648230191533
242122, 0.6058210730552673, -1.0341997146606445, -13.526226043701172, -0.01570183038711548, 0.008609920740127563, 1.0010915994644165, 0.47298431396484375, 9362.0, 28835.0, 32767.0, 9362.0, 0.0, 8.310744285583496, -0.17792753875255585, 0.22283004224300385, 0.0600237175822258, 0.01583210811994923, -0.019370566174700343, 0.03563042616070643
242132, 0.6054878234863281, -1.0346194505691528, -13.527305603027344, -0.016266897320747375, 0.010307103395462036, 1.0024034976959229, 0.5057907104492188, 9362.0, 28835.0, 32767.0, 9362.0, 0.0, 8.33057975769043, -0.1779380887746811, 0.2228495180606842, 0.06001958250999451, 0.015333434688202434, -0.023093960056456808, 0.03536534242622297
242142, 0.6036627888679504, -1.0339490175247192, -13.52965259552002, -0.016900647431612015, 0.010890960693359375, 1.002540946006775, 0.5057907104492188, 9362.0, 28835.0, 32767.0, 9362.0, 0.0, 8.33057975769043, -0.17793919146060944, 0.22283406555652618, 0.059983495622873306, 0.028148793825329668, -0.021388219706295786, 0.03708011067737303
242152, 0.604938268661499, -1.033998966217041, -13.529512405395508, -0.017479196190834045, 0.009499046951532364, 1.0032780170440674, 0.5303955078125, 9362.0, 28835.0, 32767.0, 9362.0, 0.0, 8.33057975769043, -0.17794939875602722, 0.22284218668937683, 0.059984829276800156, 0.013690793619675031, -0.00512730508123127, 0.03332900740085411
242162, 0.6020510792732239, -1.0334020853042603, -13.53070068359375, -0.015356436371803284, 0.008405839093029499, 1.0035232305526733, 0.5303955078125, 9362.0, 28835.0, 32767.0, 9362.0, 0.0, 8.33057975769043, -0.17792506515979767, 0.22284485399723053, 0.06001799553632736, 0.01576190279923852, -0.02328536859158703, 0.03394454386037237
242172, 0.6024923920631409, -1.0335084199905396, -13.531149864196777, -0.015739282593131065, 0.009281910955905914, 1.0019502639770508, 0.5577392578125, 9362.0, 28835.0, 32767.0, 9362.0, 0.0, 8.310744285583496, -0.17794300615787506, 0.2228454202413559, 0.06003406271338463, 0.019743399613460187, -0.03127593156415287, 0.03710303336537096
242182, 0.6032978296279907, -1.0325477123260498, -13.531778335571289, -0.0174967460334301, 0.010238731279969215, 1.0000580549240112, 0.5577392578125, 9362.0, 28835.0, 32767.0, 9362.0, 0.0, 8.33057975769043, -0.1779395043849945, 0.22285521030426025, 0.059980522841215134, 0.020748295271459834, -0.015910329801783973, 0.02686708292974067
242192, 0.6027441024780273, -1.0343047380447388, -13.533319473266602, -0.016159184277057648, 0.010916762053966522, 1.0008565187454224, 0.5139923095703125, 9362.0, 28835.0, 32767.0, 9362.0, 0.0, 8.33057975769043, -0.17795151472091675, 0.2228415608406067, 0.05999475717544556, 0.017028714570341056, -0.013888222584455434, 0.03774753656399592
242202, 0.6039825677871704, -1.0340882539749146, -13.533140182495117, -0.015507722273468971, 0.011496366932988167, 1.0026189088821411, 0.5139923095703125, 9362.0, 28835.0, 32767.0, 9362.0, 0.0, 8.33057975769043, -0.17793011665344238, 0.22281977534294128, 0.059980396181344986, 0.020334998128645625, -0.016878529179194857, 0.03062272369401575
242212, 0.605263352394104, -1.031510353088379, -13.532013893127441, -0.014749971218407154, 0.01239057257771492, 1.0013659000396729, 0.5659408569335938, 9362.0, 28835.0, 32767.0, 9362.0, 0.0, 8.33057975769043, -0.17794013023376465, 0.22284545004367828, 0.06002287194132805, 0.014599694178948516, -0.022614621815421287, 0.02408890314811606
242222, 0.6059457659721375, -1.0300871133804321, -13.5329008102417, -0.016339853405952454, 0.012072646990418434, 1.0019679069519043, 0.5659408569335938, 9362.0, 28835.0, 32767.0, 9362.0, 0.0, 8.310744285583496, -0.17793652415275574, 0.2228594571352005, 0.060014303773641586, 0.012388139871152894, -0.01194588368051086, 0.032673478897513646
242232, 0.606430172920227, -1.0285022258758545, -13.53262710571289, -0.017183620482683182, 0.009856851771473885, 1.0014275312423706, 0.5358657836914062, 9362.0, 28835.0, 32767.0, 9362.0, 0.0, 8.33057975769043, -0.17792972922325134, 0.22282133996486664, 0.06001327931880951, 0.014567547590146585, -0.008661034009122659, 0.03290333967731048
242242, 0.6048362851142883, -1.027705192565918, -13.533049583435059, -0.0172995887696743, 0.008914288133382797, 1.0011252164840698, 0.5358657836914062, 9362.0, 28835.0, 32767.0, 9362.0, 0.0, 8.33057975769043, -0.17794695496559143, 0.2228231430053711, 0.059978436678647995, 0.02476537878959617, -0.015853028815826065, 0.036789947884761684
242252, 0.6046198606491089, -1.0291122198104858, -13.533666610717773, -0.017779875546693802, 0.00844423845410347, 1.0027748346328735, 0.5303955078125, 9362.0, 28835.0, 32767.0, 9362.0, 0.0, 8.33057975769043, -0.17790797352790833, 0.22283898293972015, 0.05997581407427788, 0.017323869211246862, -0.016449032101661487, 0.0263859535469704
242262, 0.6024622321128845, -1.0272634029388428, -13.535346031188965, -0.01792317070066929, 0.007081328425556421, 1.002542495727539, 0.5303955078125, 9362.0, 28835.0, 32767.0, 9362.0, 0.0, 8.33057975769043, -0.1779288649559021, 0.22286579012870789, 0.0600212961435318, 0.019663139881326206, -0.021757909169252798, 0.03252589531125495
242272, 0.6038687229156494, -1.0265231132507324, -13.534844398498535, -0.017683422192931175, 0.009685521945357323, 1.0008574724197388, 0.6124191284179688, 9362.0, 28835.0, 32767.0, 9362.0, 0.0, 8.33057975769043, -0.17795073986053467, 0.22283966839313507, 0.05998649820685387, 0.017682091066758627, -0.022135164459882617, 0.034855312965900415
242282, 0.6054534316062927, -1.0277135372161865, -13.535207748413086, -0.0169206652790308, 0.010981756262481213, 1.0000808238983154, 0.6124191284179688, 9362.0, 28835.0, 32767.0, 9362.0, 0.0, 8.33057975769043, -0.1779468059539795, 0.22285547852516174, 0.06000976264476776, 0.015249958735817568, -0.030886927709588008, 0.023601027716503947
242292, 0.6049951910972595, -1.0262901782989502, -13.535059928894043, -0.016116121783852577, 0.011187426745891571, 1.0003706216812134, 0.6452255249023438, 9362.0, 28835.0, 32767.0, 9362.0, 0.0, 8.33057975769043, -0.1779259890317917, 0.22285102307796478, 0.06001122295856476, 0.01616281102060841, -0.012025170505978622, 0.03682326752661312
242302, 0.6048156023025513, -1.0257377624511719, -13.5368070602417, -0.016224155202507973, 0.01203626487404108, 0.9999886155128479, 0.6452255249023438, 9362.0, 28835.0, 32767.0, 9362.0, 0.0, 8.33057975769043, -0.17792318761348724, 0.22283048927783966, 0.0599898099899292, 0.013574245848104056, -0.019310796265159524, 0.03349723476235221
242312, 0.6053028106689453, -1.025542974472046, -13.537291526794434, -0.015299136750400066, 0.010984444990754128, 0.9988412857055664, 0.6753005981445312, 9362.0, 28835.0, 32767.0, 9362.0, 0.0, 8.33057975769043, -0.17790962755680084, 0.22283166646957397, 0.059965819120407104, 0.01035701493403667, -0.004005715379406638, 0.033399262050973544
242322, 0.6043916344642639, -1.0262264013290405, -13.539276123046875, -0.015601566061377525, 0.011797693558037281, 0.9988985061645508, 0.6753005981445312, 9362.0, 28835.0, 32767.0, 9362.0, 0.0, 8.33057975769043, -0.1779288798570633, 0.2228350192308426, 0.05997546389698982, 0.010002308088806052, -0.012286012450317685, 0.03611099031574033
