timeTick, roll, pitch, yaw, accX, accY, accZ, baro, m1, m2, m3, m4, thrust, vbat, otX0, otY0, otZ0, otRoll0, otPitch0, otYaw0
464066, 0.8429771661758423, -1.886483073234558, 2.0482370853424072, 0, 0, 0, 0, 0, 0, 0, 0, 0, 0, -1.682270884513855, -1.8455561399459839, 0.08897155523300171, 0.13538163432261127, -1.0041812226939726, -1.9473796511440506
464076, 0.8436597585678101, -1.8870025873184204, 2.047899007797241, -0.030115801841020584, 0.01470991875976324, 1.000417709350586, 0.06562042236328125, 9362.0, 28835.0, 32767.0, 9362.0, 0.0, 7.676033973693848, -1.6820199489593506, -1.8455607891082764, 0.08902706950902939, 0.14615359514559526, -0.9686680730895318, -1.9605088860039241
464086, 0.8430386781692505, -1.8875840902328491, 2.0466182231903076, -0.030866608023643494, 0.012633852660655975, 0.9986427426338196, 0.06562042236328125, 9362.0, 28835.0, 32767.0, 9362.0, 0.0, 7.676033973693848, -1.6822428703308105, -1.8454831838607788, 0.08894854038953781, 0.06420716257045325, -1.0202847522770924, -1.9437514964010416
464096, 0.842314600944519, -1.8873831033706665, 2.047100067138672, -0.029698602855205536, 0.013440480455756187, 0.9987064599990845, 0.0, 9362.0, 28835.0, 32767.0, 9362.0, 0.0, 7.676033973693848, -1.6822545528411865, -1.8455547094345093, 0.08898687362670898, 0.14169729846086285, -1.0078973311766504, -1.9501666039109553
464106, 0.8437092900276184, -1.8878926038742065, 2.0471951961517334, -0.02914334461092949, 0.01379634439945221, 0.9993937015533447, 0.0, 9362.0, 28835.0, 32767.0, 9362.0, 0.0, 7.676033973693848, -1.6821527481079102, -1.8455700874328613, 0.08903273195028305, 0.15165140560338097, -0.9728106223644204, -1.9726554133027758
464116, 0.8436868190765381, -1.888178825378418, 2.0461275577545166, -0.03025021404027939, 0.015698697417974472, 1.0009838342666626, 0.005462646484375, 9362.0, 28835.0, 32767.0, 9362.0, 0.0, 7.676033973693848, -1.6821388006210327, -1.8454862833023071, 0.08898559957742691, 0.08692668745069129, -0.9813577868984851, -1.9747291192349588
464126, 0.8444632291793823, -1.8884856700897217, 2.0463855266571045, -0.03353308141231537, 0.013488522730767727, 1.000718116760254, 0.005462646484375, 9362.0, 28835.0, 32767.0, 9362.0, 0.0, 7.676033973693848, -1.6822491884231567, -1.8455473184585571, 0.08901569992303848, 0.1363360193401326, -1.0054156188196828, -1.9563339661862356
464136, 0.8425095677375793, -1.8872216939926147, 2.044686794281006, -0.032227836549282074, 0.012247341684997082, 1.0021731853485107, -0.02187347412109375, 9362.0, 28835.0, 32767.0, 9362.0, 0.0, 7.676033973693848, -1.6822630167007446, -1.845479130744934, 0.08894272893667221, 0.0644586592708763, -1.005822311363687, -1.9485637186924325
464146, 0.8409610986709595, -1.887559413909912, 2.0443778038024902, -0.028943751007318497, 0.011676663532853127, 1.0013116598129272, -0.02187347412109375, 9362.0, 28835.0, 32767.0, 9362.0, 0.0, 7.695868015289307, -1.6821364164352417, -1.8455568552017212, 0.0890449732542038, 0.149998971848263, -0.9623715110423632, -1.976174804502935
464156, 0.8404706120491028, -1.8883843421936035, 2.0437729358673096, -0.028186894953250885, 0.012558067217469215, 1.0001826286315918, -0.03554534912109375, 9362.0, 28835.0, 32767.0, 9362.0, 0.0, 7.695868015289307, -1.6822503805160522, -1.845482587814331, 0.08896095305681229, 0.06785515703525856, -1.0210956368867699, -1.9476837548819441
464166, 0.839338481426239, -1.8884767293930054, 2.0417158603668213, -0.02866589091718197, 0.013751024380326271, 1.0007832050323486, -0.03554534912109375, 9362.0, 28835.0, 32767.0, 9362.0, 0.0, 7.676033973693848, -1.681810975074768, -1.8456085920333862, 0.08926486223936081, 0.14306175982883054, -0.9558138403931764, -2.00192087373488
464176, 0.8405722379684448, -1.8886680603027344, 2.0420081615448, -0.030536344274878502, 0.014798332937061787, 1.0031147003173828, 0.0355377197265625, 9362.0, 28835.0, 32767.0, 9362.0, 0.0, 7.676033973693848, -1.6821609735488892, -1.8455504179000854, 0.0890514999628067, 0.15416061654685442, -0.9620766682914734, -1.9812199614227328
464186, 0.8405646681785583, -1.8884680271148682, 2.0411064624786377, -0.029439687728881836, 0.012180113233625889, 1.0014528036117554, 0.0355377197265625, 9362.0, 28835.0, 32767.0, 9362.0, 0.0, 7.676033973693848, -1.6822724342346191, -1.845555305480957, 0.08897998183965683, 0.13515439546627459, -1.000714732333023, -1.9521395474756675
464196, 0.8401560187339783, -1.8886754512786865, 2.0402543544769287, -0.028975624591112137, 0.013787413015961647, 0.9998120069503784, 0.04100799560546875, 9362.0, 28835.0, 32767.0, 9362.0, 0.0, 7.676033973693848, -1.682180404663086, -1.8454859256744385, 0.08897610753774643, 0.08255984697236765, -0.9525153715162276, -1.9821914199071462
464206, 0.8386208415031433, -1.8865559101104736, 2.039355754852295, -0.02880200557410717, 0.013487396761775017, 0.9999966025352478, 0.04100799560546875, 9362.0, 28835.0, 32767.0, 9362.0, 0.0, 7.676033973693848, -1.6821680068969727, -1.8455501794815063, 0.08903788030147552, 0.16033484073227527, -0.9622144191699817, -1.9853381693628518
464216, 0.8392717838287354, -1.8883286714553833, 2.039199113845825, -0.031196918338537216, 0.01319364458322525, 1.0003103017807007, 0.07108306884765625, 9362.0, 28835.0, 32767.0, 9362.0, 0.0, 7.676033973693848, -1.6821496486663818, -1.8455512523651123, 0.08902809023857117, 0.146260686172384, -0.9659856738861379, -1.98279616271438
464226, 0.8385846614837646, -1.887193202972412, 2.040076732635498, -0.031352750957012177, 0.013338709250092506, 1.000434398651123, 0.07108306884765625, 9362.0, 28835.0, 32767.0, 9362.0, 0.0, 7.676033973693848, -1.6822668313980103, -1.845560073852539, 0.0889999270439148, 0.14411185057101722, -1.008136907837752, -1.9579184397170661
464236, 0.8388405442237854, -1.8835597038269043, 2.0400803089141846, -0.029530739411711693, 0.013643809594213963, 1.0006988048553467, 0.112091064453125, 9362.0, 28835.0, 32767.0, 9362.0, 0.0, 7.676033973693848, -1.682155728340149, -1.8455588817596436, 0.08904846757650375, 0.1609825069956747, -0.9547140124958275, -1.9749381034795312
464246, 0.8380342125892639, -1.8835902214050293, 2.039088249206543, -0.029934437945485115, 0.012893889099359512, 0.9999189376831055, 0.112091064453125, 9362.0, 28835.0, 32767.0, 9362.0, 0.0, 7.676033973693848, -1.6821672916412354, -1.8455476760864258, 0.08908488601446152, 0.15535999208237994, -0.9678903976699473, -1.988311329258461
464256, 0.8373521566390991, -1.8840062618255615, 2.0375614166259766, -0.030457396060228348, 0.013049043715000153, 1.0006219148635864, 0.032806396484375, 9362.0, 28835.0, 32767.0, 9362.0, 0.0, 7.676033973693848, -1.6821620464324951, -1.8454924821853638, 0.08903849124908447, 0.08153226306127806, -0.9656104628113269, -1.985961805802993
464266, 0.8365527987480164, -1.8848073482513428, 2.036364793777466, -0.029886094853281975, 0.012577376328408718, 1.00209641456604, 0.032806396484375, 9362.0, 28835.0, 32767.0, 9362.0, 0.0, 7.676033973693848, -1.6822526454925537, -1.8455525636672974, 0.08899375796318054, 0.14269568269028257, -1.0038757029697365, -1.9605154067675699
464276, 0.8366107940673828, -1.8870387077331543, 2.035691499710083, -0.03072127141058445, 0.012300328351557255, 1.0007212162017822, 0.06287384033203125, 9362.0, 28835.0, 32767.0, 9362.0, 0.0, 7.676033973693848, -1.6821585893630981, -1.8455533981323242, 0.08903426676988602, 0.1498985007833154, -0.9511063688477464, -1.9889890238785617
464286, 0.8377033472061157, -1.887158751487732, 2.033635139465332, -0.029979446902871132, 0.012949716299772263, 0.9987640976905823, 0.06287384033203125, 9362.0, 28835.0, 32767.0, 9362.0, 0.0, 7.695868015289307, -1.682268500328064, -1.8455567359924316, 0.0889897346496582, 0.1390720350314307, -1.0115477004887907, -1.9554001717233662
464296, 0.8367144465446472, -1.8874348402023315, 2.032977819442749, -0.02901894971728325, 0.012055921368300915, 0.9997323155403137, -0.0574188232421875, 9362.0, 28835.0, 32767.0, 9362.0, 0.0, 7.676033973693848, -1.6822654008865356, -1.8455533981323242, 0.08899004757404327, 0.13922748751471462, -1.0129100623785519, -1.9615243821558206
464306, 0.8363489508628845, -1.8872950077056885, 2.032222270965576, -0.030157120898365974, 0.014567116275429726, 1.0011833906173706, -0.0574188232421875, 9362.0, 28835.0, 32767.0, 9362.0, 0.0, 7.676033973693848, -1.682267427444458, -1.845560073852539, 0.0889936089515686, 0.14125848009855568, -0.998154972079476, -1.9581657110949748
464316, 0.8367424607276917, -1.8873649835586548, 2.031158208847046, -0.029772840440273285, 0.014926078729331493, 1.0010569095611572, -0.02734375, 9362.0, 28835.0, 32767.0, 9362.0, 0.0, 7.695868015289307, -1.6822394132614136, -1.8455512523651123, 0.08900361508131027, 0.13603294747833092, -1.0012143568897045, -1.943958240269182
464326, 0.837888777256012, -1.8885902166366577, 2.029313802719116, -0.02697199396789074, 0.012667563743889332, 1.0007617473602295, -0.02734375, 9362.0, 28835.0, 32767.0, 9362.0, 0.0, 7.695868015289307, -1.6822571754455566, -1.8454821109771729, 0.08894970268011093, 0.06575502231001744, -1.0066858221470625, -1.9387422344991754
464336, 0.8383172154426575, -1.887458086013794, 2.0283491611480713, -0.028198078274726868, 0.013079823926091194, 1.0010918378829956, -0.10662841796875, 9362.0, 28835.0, 32767.0, 9362.0, 0.0, 7.695868015289307, -1.6821491718292236, -1.845482587814331, 0.08898763358592987, 0.09078452407319759, -0.9579210378440166, -1.9748423094776322
464346, 0.8396487236022949, -1.8859823942184448, 2.0277655124664307, -0.02855263650417328, 0.015496380627155304, 1.0022939443588257, -0.10662841796875, 9362.0, 28835.0, 32767.0, 9362.0, 0.0, 7.695868015289307, -1.6822357177734375, -1.845555067062378, 0.08899775892496109, 0.136119361766211, -1.0151707235721403, -1.9504884331143326
464356, 0.8389630913734436, -1.8849003314971924, 2.027695894241333, -0.02985643781721592, 0.014196440577507019, 0.9999974966049194, -0.1640472412109375, 9362.0, 28835.0, 32767.0, 9362.0, 0.0, 7.676033973693848, -1.682266354560852, -1.845550298690796, 0.08897437900304794, 0.14370875575176417, -0.9957731891481956, -1.943118841242511
464366, 0.8383697867393494, -1.8856979608535767, 2.0263750553131104, -0.030514808371663094, 0.01316610537469387, 1.0000336170196533, -0.1640472412109375, 9362.0, 28835.0, 32767.0, 9362.0, 0.0, 7.695868015289307, -1.6822597980499268, -1.8455517292022705, 0.08901198208332062, 0.13390163317359755, -1.0164563754255198, -1.9489660774687734
464376, 0.8402161598205566, -1.8860158920288086, 2.025365114212036, -0.030084475874900818, 0.015599178150296211, 1.0000078678131104, -0.09842681884765625, 9362.0, 28835.0, 32767.0, 9362.0, 0.0, 7.676033973693848, -1.682132363319397, -1.8455651998519897, 0.08907554298639297, 0.15924522516619322, -0.9760319555087165, -1.9887527753566534
464386, 0.8415343761444092, -1.8874733448028564, 2.0233263969421387, -0.028926704078912735, 0.01357150636613369, 0.9993354082107544, -0.09842681884765625, 9362.0, 28835.0, 32767.0, 9362.0, 0.0, 7.676033973693848, -1.6821597814559937, -1.845561146736145, 0.08903944492340088, 0.15809278112351355, -0.9570002546979595, -1.9914284275207843
464396, 0.8419692516326904, -1.8889986276626587, 2.022634267807007, -0.030857715755701065, 0.011538844555616379, 1.0002659559249878, -0.11209869384765625, 9362.0, 28835.0, 32767.0, 9362.0, 0.0, 7.695868015289307, -1.6822800636291504, -1.8454926013946533, 0.08895537257194519, 0.06923831494642549, -1.0112655863036082, -1.9482956193565404
464406, 0.8421970009803772, -1.889386773109436, 2.0225276947021484, -0.031218525022268295, 0.012778172269463539, 1.0019274950027466, -0.11209869384765625, 9362.0, 28835.0, 32767.0, 9362.0, 0.0, 7.695868015289307, -1.6821646690368652, -1.8455511331558228, 0.08903838694095612, 0.15480313947762148, -0.9745365511232364, -1.9827948059280565
464416, 0.8431506156921387, -1.890539526939392, 2.022800922393799, -0.030452530831098557, 0.014275948517024517, 1.0009081363677979, -0.1038970947265625, 9362.0, 28835.0, 32767.0, 9362.0, 0.0, 7.695868015289307, -1.6821374893188477, -1.8455618619918823, 0.08907109498977661, 0.15754561389673402, -0.9719993539148675, -1.9805023645738964
464426, 0.8423985242843628, -1.8914916515350342, 2.0216317176818848, -0.030730165541172028, 0.014970111660659313, 1.0002055168151855, -0.1038970947265625, 9362.0, 28835.0, 32767.0, 9362.0, 0.0, 7.695868015289307, -1.6822419166564941, -1.8455532789230347, 0.08901387453079224, 0.13468016680400638, -1.0102280209769674, -1.9453751306968854
464436, 0.8418859243392944, -1.8906599283218384, 2.02030348777771, -0.029003268107771873, 0.013655897229909897, 1.0000228881835938, -0.0847625732421875, 9362.0, 28835.0, 32767.0, 9362.0, 0.0, 7.695868015289307, -1.6823022365570068, -1.8457331657409668, 0.08882345259189606, 0.10729712070578327, -0.9791334321982674, -1.855354570674569
464446, 0.8427208662033081, -1.8918237686157227, 2.020629644393921, -0.030661605298519135, 0.012417229823768139, 1.0013315677642822, -0.0847625732421875, 9362.0, 28835.0, 32767.0, 9362.0, 0.0, 7.695868015289307, -1.6821590662002563, -1.8455685377120972, 0.08905840665102005, 0.15790909508884704, -0.9717520176789094, -1.9870546077948152
464456, 0.8428476452827454, -1.8908840417861938, 2.020646810531616, -0.030446255579590797, 0.012937642633914948, 1.0021116733551025, -0.060150146484375, 9362.0, 28835.0, 32767.0, 9362.0, 0.0, 7.676033973693848, -1.6822432279586792, -1.8454943895339966, 0.08892815560102463, 0.062376116209408805, -1.0164882357862552, -1.9438695634784002
464466, 0.843846321105957, -1.8914265632629395, 2.0207483768463135, -0.03003847785294056, 0.015215527266263962, 0.9999819993972778, -0.060150146484375, 9362.0, 28835.0, 32767.0, 9362.0, 0.0, 7.676033973693848, -1.6821359395980835, -1.8455479145050049, 0.0890377089381218, 0.15662386912564905, -0.9687653742728628, -1.9899869918952455
464476, 0.8448294997215271, -1.8924345970153809, 2.0206756591796875, -0.03067139908671379, 0.014694936573505402, 0.9997766017913818, -0.03281402587890625, 9362.0, 28835.0, 32767.0, 9362.0, 0.0, 7.676033973693848, -1.6821612119674683, -1.8455809354782104, 0.08904968947172165, 0.15403797980471332, -0.9684493667615754, -1.9912567680151805
464486, 0.8457866311073303, -1.8931334018707275, 2.019672393798828, -0.031530097126960754, 0.013533986173570156, 1.0012760162353516, -0.03281402587890625, 9362.0, 28835.0, 32767.0, 9362.0, 0.0, 7.676033973693848, -1.6822600364685059, -1.8455477952957153, 0.08902501314878464, 0.1388873147686757, -1.02054285743003, -1.9657412154980296
464496, 0.845537543296814, -1.8940141201019287, 2.0189990997314453, -0.028501980006694794, 0.01359345018863678, 1.0016076564788818, -0.0847625732421875, 9362.0, 28835.0, 32767.0, 9362.0, 0.0, 7.695868015289307, -1.6821699142456055, -1.8454809188842773, 0.08899693191051483, 0.08189665212427912, -0.9660052217206214, -1.9800553049873897
464506, 0.8455855846405029, -1.8942147493362427, 2.0175180435180664, -0.03077194094657898, 0.013007714413106441, 1.0006639957427979, -0.0847625732421875, 9362.0, 28835.0, 32767.0, 9362.0, 0.0, 7.676033973693848, -1.6821640729904175, -1.8454787731170654, 0.0889802873134613, 0.08640838785297694, -0.9637888866071194, -1.9744803667349646
464516, 0.8444007039070129, -1.8942619562149048, 2.016167640686035, -0.029857218265533447, 0.012043901719152927, 1.00078547000885, -0.06288909912109375, 9362.0, 28835.0, 32767.0, 9362.0, 0.0, 7.676033973693848, -1.6821414232254028, -1.845551609992981, 0.08906961977481842, 0.15819390117716603, -0.965166558851223, -1.9987429162351493
464526, 0.8444096446037292, -1.8954910039901733, 2.0167083740234375, -0.030360186472535133, 0.012399056926369667, 1.00169837474823, -0.06288909912109375, 9362.0, 28835.0, 32767.0, 9362.0, 0.0, 7.676033973693848, -1.6822470426559448, -1.8455640077590942, 0.08898460865020752, 0.13533861186651192, -1.002036576016053, -1.9545001430968552
464536, 0.8445594906806946, -1.8959664106369019, 2.015291213989258, -0.03037048876285553, 0.014204587787389755, 1.0004878044128418, -0.087493896484375, 9362.0, 28835.0, 32767.0, 9362.0, 0.0, 7.676033973693848, -1.682170033454895, -1.8455582857131958, 0.08902943134307861, 0.1518114783528634, -0.9598666696925591, -1.990902134760397
464546, 0.8439260125160217, -1.895784616470337, 2.0144362449645996, -0.030470777302980423, 0.01512590516358614, 0.9994138479232788, -0.087493896484375, 9362.0, 28835.0, 32767.0, 9362.0, 0.0, 7.695868015289307, -1.6821562051773071, -1.845565915107727, 0.08903797715902328, 0.15884105100414175, -0.9592081449814884, -1.9773150953694703
464556, 0.8444244861602783, -1.8958954811096191, 2.013582229614258, -0.030357906594872475, 0.01327452901750803, 1.0000885725021362, -0.13944244384765625, 9362.0, 28835.0, 32767.0, 9362.0, 0.0, 7.695868015289307, -1.682157039642334, -1.8455642461776733, 0.08904943615198135, 0.1553087078648049, -0.9587673061034536, -1.9838012029044452
464566, 0.8412061333656311, -1.8969104290008545, 2.0108022689819336, -0.030195683240890503, 0.012982605956494808, 1.0018812417984009, -0.13944244384765625, 9362.0, 28835.0, 32767.0, 9362.0, 0.0, 7.676033973693848, -1.682268738746643, -1.8455621004104614, 0.0890120193362236, 0.14154804526166376, -1.0017822993241339, -1.9614775547815506
464576, 0.8416916131973267, -1.8986334800720215, 2.0104763507843018, -0.03048618882894516, 0.012770004570484161, 1.0003128051757812, -0.09295654296875, 9362.0, 28835.0, 32767.0, 9362.0, 0.0, 7.695868015289307, -1.6821622848510742, -1.8455663919448853, 0.08904761075973511, 0.1597203706586233, -0.9612636239245944, -1.9885836439527373
464586, 0.8408676981925964, -1.8966342210769653, 2.00879168510437, -0.031158052384853363, 0.012982743792235851, 1.00202214717865, -0.09295654296875, 9362.0, 28835.0, 32767.0, 9362.0, 0.0, 7.695868015289307, -1.6821595430374146, -1.845557689666748, 0.08905204385519028, 0.15477391708468824, -0.9673694375785828, -1.9947269091541633
464596, 0.8419639468193054, -1.8964587450027466, 2.0073940753936768, -0.03025474026799202, 0.015026625245809555, 1.001036524772644, -0.0902252197265625, 9362.0, 28835.0, 32767.0, 9362.0, 0.0, 7.676033973693848, -1.6821850538253784, -1.8454668521881104, 0.08901813626289368, 0.07849605141131576, -0.950150455638834, -1.9833712267572525
464606, 0.8414666652679443, -1.8965264558792114, 2.00805926322937, -0.029229335486888885, 0.013408148661255836, 1.0002645254135132, -0.0902252197265625, 9362.0, 28835.0, 32767.0, 9362.0, 0.0, 7.676033973693848, -1.6821579933166504, -1.8455642461776733, 0.08905021101236343, 0.16042488186396822, -0.9571264003340048, -1.9880275213021654
464616, 0.8419063091278076, -1.897840976715088, 2.007840394973755, -0.030136005952954292, 0.0130546186119318, 0.9992784261703491, 0.06014251708984375, 9362.0, 28835.0, 32767.0, 9362.0, 0.0, 7.695868015289307, -1.6821644306182861, -1.8455650806427002, 0.08907880634069443, 0.15081789654821942, -0.9662389461030614, -1.993253934887351
464626, 0.8446475863456726, -1.8999446630477905, 2.008352756500244, -0.028904985636472702, 0.013285703957080841, 1.0008447170257568, 0.06014251708984375, 9362.0, 28835.0, 32767.0, 9362.0, 0.0, 7.695868015289307, -1.682184100151062, -1.8455748558044434, 0.08907590806484222, 0.1532652400675499, -0.9603139419347144, -1.9806294226031838
464636, 0.8451594114303589, -1.8996467590332031, 2.0067520141601562, -0.030067717656493187, 0.01394670270383358, 0.9993398785591125, 0.032806396484375, 9362.0, 28835.0, 32767.0, 9362.0, 0.0, 7.695868015289307, -1.6821850538253784, -1.8455663919448853, 0.08907311409711838, 0.15411686442797629, -0.9613038474943494, -1.983509537326385
464646, 0.8456358313560486, -1.8985744714736938, 2.00516414642334, -0.031017377972602844, 0.015281586907804012, 1.0011298656463623, 0.032806396484375, 9362.0, 28835.0, 32767.0, 9362.0, 0.0, 7.695868015289307, -1.6821638345718384, -1.8455582857131958, 0.08905934542417526, 0.15257929655667335, -0.9594032706969244, -1.991611496678398
464656, 0.8467305302619934, -1.898331880569458, 2.004086494445801, -0.029738061130046844, 0.014987938106060028, 1.002040147781372, -0.01641082763671875, 9362.0, 28835.0, 32767.0, 9362.0, 0.0, 7.676033973693848, -1.6821743249893188, -1.8455567359924316, 0.08906126022338867, 0.15243877487713392, -0.9607036475440793, -1.9953640974447586
464666, 0.8466678261756897, -1.8997598886489868, 2.001868486404419, -0.02927572652697563, 0.014151298440992832, 0.99982750415802, -0.01641082763671875, 9362.0, 28835.0, 32767.0, 9362.0, 0.0, 7.695868015289307, -1.6821802854537964, -1.8455580472946167, 0.08905687928199768, 0.14977784176450015, -0.966185046168647, -1.9901816777342582
464676, 0.8458721041679382, -1.89752995967865, 2.001427412033081, -0.030559010803699493, 0.013490328565239906, 0.9998675584793091, -0.02187347412109375, 9362.0, 28835.0, 32767.0, 9362.0, 0.0, 7.695868015289307, -1.6821670532226562, -1.845561146736145, 0.08907536417245865, 0.15079796248466282, -0.9734812766415359, -1.9812262947444377
464686, 0.8465304374694824, -1.898271918296814, 2.0000929832458496, -0.029752157628536224, 0.012084589339792728, 1.0023659467697144, -0.02187347412109375, 9362.0, 28835.0, 32767.0, 9362.0, 0.0, 7.695868015289307, -1.6822662353515625, -1.845555305480957, 0.08900933712720871, 0.132920967555535, -1.0082569176534832, -1.9603816375427197
464696, 0.8467742800712585, -1.898026466369629, 1.9986636638641357, -0.030475443229079247, 0.01395419705659151, 1.0002942085266113, -0.060150146484375, 9362.0, 28835.0, 32767.0, 9362.0, 0.0, 7.695868015289307, -1.6821550130844116, -1.845555067062378, 0.08904950320720673, 0.1491759122237231, -0.9706572918670986, -1.9776275252255762
464706, 0.8471052050590515, -1.8986586332321167, 1.9972128868103027, -0.029391266405582428, 0.015430500730872154, 0.9996520280838013, -0.060150146484375, 9362.0, 28835.0, 32767.0, 9362.0, 0.0, 7.695868015289307, -1.682283639907837, -1.8455501794815063, 0.08900413662195206, 0.12919869577460794, -1.006998117070026, -1.9531902054888308
464716, 0.8458324670791626, -1.897186279296875, 1.9961432218551636, -0.02962641417980194, 0.014685707166790962, 1.0024607181549072, -0.06562042236328125, 9362.0, 28835.0, 32767.0, 9362.0, 0.0, 7.676033973693848, -1.6821660995483398, -1.845473051071167, 0.08898729085922241, 0.08509983131486344, -0.9573146226326799, -1.970083594339354
464726, 0.8464873433113098, -1.8993595838546753, 1.9948416948318481, -0.02846767008304596, 0.014550215564668179, 1.0032013654708862, -0.06562042236328125, 9362.0, 28835.0, 32767.0, 9362.0, 0.0, 7.676033973693848, -1.6821449995040894, -1.8455719947814941, 0.08907535672187805, 0.14628559606049268, -0.9653244467351954, -1.9740008886022222
464736, 0.846640944480896, -1.8994371891021729, 1.9940032958984375, -0.029689792543649673, 0.012906897813081741, 1.0013325214385986, -0.04648590087890625, 9362.0, 28835.0, 32767.0, 9362.0, 0.0, 7.676033973693848, -1.6821423768997192, -1.8455592393875122, 0.08906915038824081, 0.15448602128416442, -0.972681801953712, -1.973190039320188
464746, 0.8468040823936462, -1.900413990020752, 1.9928306341171265, -0.03311505541205406, 0.01599893346428871, 0.9979144930839539, -0.04648590087890625, 9362.0, 28835.0, 32767.0, 9362.0, 0.0, 7.695868015289307, -1.682184100151062, -1.8455500602722168, 0.0890403687953949, 0.15442513448725242, -0.9635667834837705, -1.9828782578839508
464756, 0.8469699025154114, -1.8991795778274536, 1.9927009344100952, -0.031958647072315216, 0.01631004922091961, 0.9976757168769836, -0.1093597412109375, 9362.0, 28835.0, 32767.0, 9362.0, 0.0, 7.695868015289307, -1.6821620464324951, -1.8455601930618286, 0.08902419358491898, 0.1588362804221852, -0.9672994381931517, -1.9836153914529469
464766, 0.8472009301185608, -1.8978335857391357, 1.9920896291732788, -0.029309729114174843, 0.011175617575645447, 0.9998804330825806, -0.1093597412109375, 9362.0, 28835.0, 32767.0, 9362.0, 0.0, 7.695868015289307, -1.6822503805160522, -1.8454660177230835, 0.08894110471010208, 0.06549485431828327, -1.0268505771323078, -1.9537333549048845
464776, 0.846996009349823, -1.8975557088851929, 1.991892695426941, -0.030030742287635803, 0.012143771164119244, 1.0002819299697876, -0.09295654296875, 9362.0, 28835.0, 32767.0, 9362.0, 0.0, 7.695868015289307, -1.6822541952133179, -1.845563292503357, 0.08898890018463135, 0.1386467358347462, -1.0092790357781496, -1.953109564665322
464786, 0.8457903265953064, -1.8990825414657593, 1.9902455806732178, -0.03244316205382347, 0.01291691418737173, 1.000923991203308, -0.09295654296875, 9362.0, 28835.0, 32767.0, 9362.0, 0.0, 7.695868015289307, -1.6818428039550781, -1.845544457435608, 0.08922801166772842, 0.06715247505689494, -0.9496090235337249, -1.9989987832213127
464796, 0.845212459564209, -1.8985481262207031, 1.989189624786377, -0.030447011813521385, 0.013319050893187523, 1.001810073852539, -0.11483001708984375, 9362.0, 28835.0, 32767.0, 9362.0, 0.0, 7.695868015289307, -1.6821539402008057, -1.8455560207366943, 0.08904440701007843, 0.15435483209962003, -0.9673431523885938, -1.9818471481539657
464806, 0.8455105423927307, -1.8982656002044678, 1.98807954788208, -0.02920210361480713, 0.01464453898370266, 1.0018490552902222, -0.11483001708984375, 9362.0, 28835.0, 32767.0, 9362.0, 0.0, 7.695868015289307, -1.6822779178619385, -1.845474362373352, 0.08895441889762878, 0.07095519980884538, -1.0048293859406954, -1.9417624377122018
464816, 0.8449664115905762, -1.8993967771530151, 1.987006664276123, -0.03005628101527691, 0.013075300492346287, 1.001760482788086, -0.2296600341796875, 9362.0, 28835.0, 32767.0, 9362.0, 0.0, 7.695868015289307, -1.6822686195373535, -1.8454796075820923, 0.08899971097707748, 0.06329900235289831, -1.0002541892681336, -1.9500679634853773
464826, 0.8439943790435791, -1.8980634212493896, 1.985769271850586, -0.03092588670551777, 0.012123187072575092, 1.0008999109268188, -0.2296600341796875, 9362.0, 28835.0, 32767.0, 9362.0, 0.0, 7.695868015289307, -1.682253360748291, -1.8455535173416138, 0.08900139480829239, 0.13314388721561712, -1.006776443859053, -1.9504301251930833
464836, 0.8447369933128357, -1.8981823921203613, 1.98513662815094, -0.03019842877984047, 0.013763884082436562, 1.0010347366333008, -0.15857696533203125, 9362.0, 28835.0, 32767.0, 9362.0, 0.0, 7.695868015289307, -1.6821647882461548, -1.845489501953125, 0.08898365497589111, 0.0775324439796021, -0.9732641654135818, -1.9744051904350104
464846, 0.8446243405342102, -1.899601697921753, 1.985101342201233, -0.030292494222521782, 0.013461867347359657, 1.0016666650772095, -0.15857696533203125, 9362.0, 28835.0, 32767.0, 9362.0, 0.0, 7.695868015289307, -1.68226158618927, -1.8455536365509033, 0.0889844298362732, 0.13177653308974172, -1.0129202773688348, -1.949621490699613
464856, 0.8430519104003906, -1.8997329473495483, 1.983991265296936, -0.029612891376018524, 0.012921658344566822, 1.0014915466308594, -0.153106689453125, 9362.0, 28835.0, 32767.0, 9362.0, 0.0, 7.695868015289307, -1.6821187734603882, -1.845546841621399, 0.08907189220190048, 0.1505951909488822, -0.9685460963922026, -1.9826699551143916
464866, 0.8437702059745789, -1.9003098011016846, 1.9836513996124268, -0.028872329741716385, 0.014425159431993961, 1.0004302263259888, -0.153106689453125, 9362.0, 28835.0, 32767.0, 9362.0, 0.0, 7.676033973693848, -1.6821720600128174, -1.8455626964569092, 0.08904820680618286, 0.15093869107902277, -0.957553858269506, -1.9870620463282425
464876, 0.8425061702728271, -1.90142023563385, 1.982505440711975, -0.030776694416999817, 0.013718506321310997, 1.0001822710037231, -0.13396453857421875, 9362.0, 28835.0, 32767.0, 9362.0, 0.0, 7.695868015289307, -1.68215012550354, -1.8455626964569092, 0.0890318900346756, 0.14726443347836968, -0.967089335012588, -1.9797897197442302
464886, 0.8428888916969299, -1.9002115726470947, 1.9823472499847412, -0.03192225471138954, 0.013091250322759151, 1.0001624822616577, -0.13396453857421875, 9362.0, 28835.0, 32767.0, 9362.0, 0.0, 7.695868015289307, -1.6821550130844116, -1.845564603805542, 0.08904553949832916, 0.16096430604531403, -0.9566665528098497, -1.9836846543775095
464896, 0.841869592666626, -1.8996201753616333, 1.9811288118362427, -0.029061224311590195, 0.013291771523654461, 1.0023058652877808, -0.06835174560546875, 9362.0, 28835.0, 32767.0, 9362.0, 0.0, 7.695868015289307, -1.682244062423706, -1.8455485105514526, 0.0890202522277832, 0.1392917816402858, -1.0110619200798112, -1.946564305799398
464906, 0.8419556021690369, -1.9005364179611206, 1.9816738367080688, -0.02882997691631317, 0.013356950134038925, 1.0030241012573242, -0.06835174560546875, 9362.0, 28835.0, 32767.0, 9362.0, 0.0, 7.695868015289307, -1.6821500062942505, -1.8455522060394287, 0.0890246257185936, 0.14973825278141903, -0.9691052648690857, -1.9860969283084704
464916, 0.8424544930458069, -1.9005038738250732, 1.9811500310897827, -0.030866418033838272, 0.013978322967886925, 1.001119613647461, -0.01914215087890625, 9362.0, 28835.0, 32767.0, 9362.0, 0.0, 7.695868015289307, -1.6821491718292236, -1.8454833030700684, 0.0889865830540657, 0.08521992126987246, -0.9728882736060598, -1.9691873008071865
464926, 0.8412846326828003, -1.9006060361862183, 1.9799714088439941, -0.030825883150100708, 0.013346372172236443, 1.0008316040039062, -0.01914215087890625, 9362.0, 28835.0, 32767.0, 9362.0, 0.0, 7.695868015289307, -1.682157039642334, -1.8455578088760376, 0.08905170112848282, 0.15218382158380384, -0.9633978155888201, -1.9721835199302644
464936, 0.8411499857902527, -1.9004045724868774, 1.9795047044754028, -0.029515748843550682, 0.012100032530725002, 1.0008212327957153, 0.0109405517578125, 9362.0, 28835.0, 32767.0, 9362.0, 0.0, 7.676033973693848, -1.6822670698165894, -1.8454700708389282, 0.08894374966621399, 0.06516083759407812, -1.0079256914557675, -1.9484438009944773
464946, 0.8399903774261475, -1.900084376335144, 1.9800350666046143, -0.030178938060998917, 0.012227874249219894, 1.0017215013504028, 0.0109405517578125, 9362.0, 28835.0, 32767.0, 9362.0, 0.0, 7.695868015289307, -1.6821554899215698, -1.8455560207366943, 0.0890626385807991, 0.16362423166744558, -0.9584568801252829, -1.9852984873226645
464956, 0.8393354415893555, -1.8996809720993042, 1.97965669631958, -0.02821316570043564, 0.014224912971258163, 1.000063180923462, -0.0027313232421875, 9362.0, 28835.0, 32767.0, 9362.0, 0.0, 7.695868015289307, -1.6818861961364746, -1.8454680442810059, 0.08897664397954941, 0.08883396382525906, -0.9199117387434512, -2.014268911845155
464966, 0.8392879366874695, -1.8996652364730835, 1.9790924787521362, -0.028839092701673508, 0.013029680587351322, 1.0026791095733643, -0.0027313232421875, 9362.0, 28835.0, 32767.0, 9362.0, 0.0, 7.695868015289307, -1.682159423828125, -1.845550298690796, 0.08904212713241577, 0.1570136792575326, -0.9648663238532151, -1.982509445588216
464976, 0.8405070900917053, -1.899645447731018, 1.978560209274292, -0.0299795214086771, 0.014805369079113007, 1.0011318922042847, -0.0902252197265625, 9362.0, 28835.0, 32767.0, 9362.0, 0.0, 7.695868015289307, -1.6821647882461548, -1.8455548286437988, 0.08902661502361298, 0.15683364070617445, -0.9579192174808782, -1.97674009893134
464986, 0.8395993113517761, -1.8996473550796509, 1.976812720298767, -0.0290914848446846, 0.015360735356807709, 1.0016391277313232, -0.0902252197265625, 9362.0, 28835.0, 32767.0, 9362.0, 0.0, 7.676033973693848, -1.6822434663772583, -1.8455513715744019, 0.08899890631437302, 0.1431905235702437, -1.0127085750223443, -1.94884560143403
464996, 0.8378866910934448, -1.8987690210342407, 1.9764217138290405, -0.028053462505340576, 0.013037744909524918, 1.0028557777404785, -0.11483001708984375, 9362.0, 28835.0, 32767.0, 9362.0, 0.0, 7.676033973693848, -1.6822587251663208, -1.8454811573028564, 0.0889296680688858, 0.06094842094833119, -1.0059388497617476, -1.9397267081529876
465006, 0.8367699384689331, -1.898463487625122, 1.9759734869003296, -0.02733580954372883, 0.012914985418319702, 1.0021523237228394, -0.11483001708984375, 9362.0, 28835.0, 32767.0, 9362.0, 0.0, 7.676033973693848, -1.6821566820144653, -1.8455568552017212, 0.08904584497213364, 0.15571504353910173, -0.9744099283074661, -1.9785373973937093
465016, 0.8367719054222107, -1.8983564376831055, 1.9749455451965332, -0.028303038328886032, 0.012614063918590546, 1.0000163316726685, -0.0956878662109375, 9362.0, 28835.0, 32767.0, 9362.0, 0.0, 7.695868015289307, -1.6821472644805908, -1.8455455303192139, 0.08901877701282501, 0.15186829337117747, -0.9603759288222875, -1.9761546393203855
465026, 0.8367521166801453, -1.8980745077133179, 1.9741594791412354, -0.02894631028175354, 0.01151247974485159, 0.999586820602417, -0.0956878662109375, 9362.0, 28835.0, 32767.0, 9362.0, 0.0, 7.695868015289307, -1.682152509689331, -1.8455561399459839, 0.08902435004711151, 0.15836560358750582, -0.9587366256679388, -1.9807041334345472
465036, 0.8366760611534119, -1.8998006582260132, 1.9725602865219116, -0.03101426362991333, 0.015080217272043228, 1.0011420249938965, -0.0847625732421875, 9362.0, 28835.0, 32767.0, 9362.0, 0.0, 7.695868015289307, -1.6821709871292114, -1.845472812652588, 0.08899591118097305, 0.08283629188603067, -0.9699429942959057, -1.9695967566583348
465046, 0.836275041103363, -1.9009222984313965, 1.9724023342132568, -0.03222260624170303, 0.01373482309281826, 1.003367304801941, -0.0847625732421875, 9362.0, 28835.0, 32767.0, 9362.0, 0.0, 7.695868015289307, -1.6821538209915161, -1.8455514907836914, 0.08904436975717545, 0.16346339434950152, -0.9579122383273386, -1.9786702531536842
465056, 0.8352804780006409, -1.9021624326705933, 1.971213936805725, -0.02969520166516304, 0.01476082019507885, 1.0026180744171143, -0.0847625732421875, 9362.0, 28835.0, 32767.0, 9362.0, 0.0, 7.676033973693848, -1.6818759441375732, -1.8454605340957642, 0.08898656070232391, 0.08721224401240882, -0.9303011549384337, -2.0144869814049273
465066, 0.8356302380561829, -1.9019227027893066, 1.970299482345581, -0.027621200308203697, 0.014056649059057236, 1.0026154518127441, -0.0847625732421875, 9362.0, 28835.0, 32767.0, 9362.0, 0.0, 7.695868015289307, -1.682144284248352, -1.8455517292022705, 0.08906710892915726, 0.15206927370080495, -0.9678122242139011, -1.9757189535688358
465076, 0.836021363735199, -1.9014341831207275, 1.9702774286270142, -0.02960868924856186, 0.01323707401752472, 1.002211093902588, -0.06288909912109375, 9362.0, 28835.0, 32767.0, 9362.0, 0.0, 7.695868015289307, -1.6821651458740234, -1.8455638885498047, 0.08903536945581436, 0.15439565778894207, -0.9590366880259751, -1.978013213334778
465086, 0.8361630439758301, -1.9014241695404053, 1.9683005809783936, -0.02958068437874317, 0.013192862272262573, 1.0017774105072021, -0.06288909912109375, 9362.0, 28835.0, 32767.0, 9362.0, 0.0, 7.695868015289307, -1.6823005676269531, -1.8454704284667969, 0.08891522139310837, 0.05769910599732513, -0.9886197774626169, -1.9347171936538492
465096, 0.8369944095611572, -1.9001009464263916, 1.9688520431518555, -0.03057238459587097, 0.013930834829807281, 0.9985320568084717, -0.08203125, 9362.0, 28835.0, 32767.0, 9362.0, 0.0, 7.676033973693848, -1.682166337966919, -1.8455686569213867, 0.08904601633548737, 0.1497077149790333, -0.9746341166698755, -1.9901826400106981
465106, 0.8369476795196533, -1.8984990119934082, 1.9681212902069092, -0.03145095333456993, 0.013936426490545273, 0.9992324709892273, -0.08203125, 9362.0, 28835.0, 32767.0, 9362.0, 0.0, 7.695868015289307, -1.6822599172592163, -1.8455291986465454, 0.08900108933448792, 0.1342629702752728, -1.0040445278791879, -1.951006047034956
465116, 0.8368543982505798, -1.8984441757202148, 1.968017578125, -0.02893003076314926, 0.013268700800836086, 1.0009713172912598, -0.0847625732421875, 9362.0, 28835.0, 32767.0, 9362.0, 0.0, 7.695868015289307, -1.6821645498275757, -1.8455591201782227, 0.08907638490200043, 0.15552363781161016, -0.9650691607492945, -1.9825836091664433
465126, 0.8382292985916138, -1.8983889818191528, 1.9679827690124512, -0.029499048367142677, 0.012332556769251823, 1.0014901161193848, -0.0847625732421875, 9362.0, 28835.0, 32767.0, 9362.0, 0.0, 7.676033973693848, -1.6821627616882324, -1.8455350399017334, 0.08908222615718842, 0.15699297222519387, -0.9762105395679725, -1.9882052914793888
465136, 0.8391327857971191, -1.8993221521377563, 1.966809630393982, -0.029884707182645798, 0.01426513958722353, 0.9980748891830444, -0.087493896484375, 9362.0, 28835.0, 32767.0, 9362.0, 0.0, 7.676033973693848, -1.6822963953018188, -1.845723271369934, 0.08879246562719345, 0.10912444490226862, -0.9595002205412584, -1.8413028043737736
465146, 0.8389399647712708, -1.8998726606369019, 1.9649635553359985, -0.031626708805561066, 0.014746804721653461, 0.9992300868034363, -0.087493896484375, 9362.0, 28835.0, 32767.0, 9362.0, 0.0, 7.695868015289307, -1.6821448802947998, -1.8455448150634766, 0.0890275090932846, 0.14952332040847807, -0.9777125989218689, -1.9818645379102853
465156, 0.8399055600166321, -1.897869348526001, 1.9647291898727417, -0.03239773213863373, 0.016462616622447968, 1.0007587671279907, -0.101165771484375, 9362.0, 28835.0, 32767.0, 9362.0, 0.0, 7.695868015289307, -1.6822586059570312, -1.845562219619751, 0.08899333328008652, 0.13453918226214714, -1.0139315893914898, -1.9535250726851754
465166, 0.838897705078125, -1.89812433719635, 1.964736819267273, -0.03132461756467819, 0.013673181645572186, 0.9993413686752319, -0.101165771484375, 9362.0, 28835.0, 32767.0, 9362.0, 0.0, 7.695868015289307, -1.6821640729904175, -1.8455657958984375, 0.0890524685382843, 0.15114102404949248, -0.9587897937783509, -1.979439387399863
465176, 0.8390084505081177, -1.897643804550171, 1.964302897453308, -0.02920752391219139, 0.014372400939464569, 1.0000886917114258, -0.15584564208984375, 9362.0, 28835.0, 32767.0, 9362.0, 0.0, 7.695868015289307, -1.6823124885559082, -1.8457058668136597, 0.08882167190313339, 0.100483890669924, -0.9764215685348177, -1.8502087803849547
465186, 0.8389521837234497, -1.899185061454773, 1.9640063047409058, -0.029863961040973663, 0.014814918860793114, 1.0016672611236572, -0.15584564208984375, 9362.0, 28835.0, 32767.0, 9362.0, 0.0, 7.695868015289307, -1.682151198387146, -1.8454731702804565, 0.08902264386415482, 0.08231623778887874, -0.9642374040116408, -1.9763611346487355
465196, 0.8389882445335388, -1.8997783660888672, 1.9635393619537354, -0.029154740273952484, 0.013810981065034866, 1.0012093782424927, -0.13944244384765625, 9362.0, 28835.0, 32767.0, 9362.0, 0.0, 7.676033973693848, -1.682264804840088, -1.8455578088760376, 0.08899088203907013, 0.13661532440994395, -0.9967521860157262, -1.9465096878012158
465206, 0.8379464149475098, -1.8997260332107544, 1.9629720449447632, -0.028996173292398453, 0.012949167750775814, 0.9993535280227661, -0.13944244384765625, 9362.0, 28835.0, 32767.0, 9362.0, 0.0, 7.676033973693848, -1.6821603775024414, -1.8455636501312256, 0.08903905004262924, 0.15683653622856136, -0.9502751467275061, -1.9649086859326674
465216, 0.8375234007835388, -1.9006651639938354, 1.9616202116012573, -0.0312051884829998, 0.011947838589549065, 1.0008137226104736, -0.13944244384765625, 9362.0, 28835.0, 32767.0, 9362.0, 0.0, 7.695868015289307, -1.6822216510772705, -1.8457510471343994, 0.0887865424156189, 0.12372783964999712, -0.9330042051073235, -1.8660733872630049
465226, 0.8381145596504211, -1.9015377759933472, 1.961500644683838, -0.030559932813048363, 0.012660964392125607, 1.0013477802276611, -0.13944244384765625, 9362.0, 28835.0, 32767.0, 9362.0, 0.0, 7.695868015289307, -1.6822583675384521, -1.8454734086990356, 0.08893238753080368, 0.06385231632857057, -1.0106068309085572, -1.948222633465425
465236, 0.8378894329071045, -1.8991103172302246, 1.9605878591537476, -0.02929651364684105, 0.012273832224309444, 1.000474214553833, -0.06288909912109375, 9362.0, 28835.0, 32767.0, 9362.0, 0.0, 7.695868015289307, -1.6822677850723267, -1.8455555438995361, 0.08898194879293442, 0.1412431518418004, -1.0188231381233948, -1.9505311289854064
465246, 0.8381583094596863, -1.8990306854248047, 1.960403561592102, -0.029165979474782944, 0.012149173766374588, 1.0028088092803955, -0.06288909912109375, 9362.0, 28835.0, 32767.0, 9362.0, 0.0, 7.695868015289307, -1.6822686195373535, -1.845556378364563, 0.08900625258684158, 0.1350247527472294, -1.00218380931733, -1.9511167937847471
465256, 0.8377306461334229, -1.8994218111038208, 1.9615367650985718, -0.030604476109147072, 0.013554535806179047, 1.0012991428375244, -0.08203125, 9362.0, 28835.0, 32767.0, 9362.0, 0.0, 7.695868015289307, -1.6821638345718384, -1.8455517292022705, 0.08904862403869629, 0.1527014457396949, -0.9620639893552152, -1.9779707685019428
465266, 0.8376436233520508, -1.898150086402893, 1.9615355730056763, -0.029706783592700958, 0.013490680605173111, 1.0009729862213135, -0.08203125, 9362.0, 28835.0, 32767.0, 9362.0, 0.0, 7.695868015289307, -1.682161808013916, -1.8455524444580078, 0.08902272582054138, 0.1600373546578944, -0.9662762264904927, -1.981618318214983
465276, 0.8392505645751953, -1.8981963396072388, 1.9618498086929321, -0.029316572472453117, 0.012564467266201973, 0.9995341300964355, -0.153106689453125, 9362.0, 28835.0, 32767.0, 9362.0, 0.0, 7.695868015289307, -1.6821554899215698, -1.8454838991165161, 0.08897082507610321, 0.08160500094649367, -0.9604622827742446, -1.971062975712999
465286, 0.8384267091751099, -1.8978525400161743, 1.961768388748169, -0.029743976891040802, 0.012204756028950214, 0.9992802143096924, -0.153106689453125, 9362.0, 28835.0, 32767.0, 9362.0, 0.0, 7.695868015289307, -1.6821590662002563, -1.8454903364181519, 0.08900434523820877, 0.09255842476661567, -0.9525924067829692, -1.98090036760925
465296, 0.8386516571044922, -1.8980072736740112, 1.9610486030578613, -0.030656717717647552, 0.014797122217714787, 1.0005033016204834, -0.1640472412109375, 9362.0, 28835.0, 32767.0, 9362.0, 0.0, 7.695868015289307, -1.6821767091751099, -1.845558762550354, 0.08902915567159653, 0.1607357933318904, -0.963842918922154, -1.9753577790454107
465306, 0.8392427563667297, -1.898520588874817, 1.9601173400878906, -0.03245995566248894, 0.015480399131774902, 1.003026008605957, -0.1640472412109375, 9362.0, 28835.0, 32767.0, 9362.0, 0.0, 7.676033973693848, -1.6821539402008057, -1.845556378364563, 0.08903469145298004, 0.15508165904259724, -0.9629063850991599, -1.98020170326069
465316, 0.8393238186836243, -1.9003671407699585, 1.9603619575500488, -0.03161165118217468, 0.015301378443837166, 1.0020500421524048, -0.11209869384765625, 9362.0, 28835.0, 32767.0, 9362.0, 0.0, 7.695868015289307, -1.6821662187576294, -1.8455567359924316, 0.08904160559177399, 0.15826871563055378, -0.9716331025454963, -1.9845584974102988
465326, 0.8391498923301697, -1.9006150960922241, 1.9594708681106567, -0.030325844883918762, 0.014290239661931992, 1.0002073049545288, -0.11209869384765625, 9362.0, 28835.0, 32767.0, 9362.0, 0.0, 7.695868015289307, -1.6821656227111816, -1.8455500602722168, 0.089046910405159, 0.1492850825800453, -0.9611496326796214, -1.985442570932825
465336, 0.8390965461730957, -1.8996871709823608, 1.9586135149002075, -0.031459420919418335, 0.01494995690882206, 0.9993776082992554, -0.0765533447265625, 9362.0, 28835.0, 32767.0, 9362.0, 0.0, 7.695868015289307, -1.6821589469909668, -1.8455684185028076, 0.08903392404317856, 0.14864436214323112, -0.963880021696383, -1.9779442061706893
465346, 0.8390032649040222, -1.8997445106506348, 1.9584816694259644, -0.03147174417972565, 0.013990595936775208, 1.0008821487426758, -0.0765533447265625, 9362.0, 28835.0, 32767.0, 9362.0, 0.0, 7.695868015289307, -1.6821550130844116, -1.8455628156661987, 0.08903567492961884, 0.1514894850560811, -0.9609233162543092, -1.9783328779136866
465356, 0.8384555578231812, -1.8979737758636475, 1.9576715230941772, -0.030083339661359787, 0.012102426029741764, 0.9998170733451843, -0.0956878662109375, 9362.0, 28835.0, 32767.0, 9362.0, 0.0, 7.695868015289307, -1.6822686195373535, -1.8455435037612915, 0.08897166699171066, 0.1369546966698999, -1.0074379944889529, -1.9523084113304805
465366, 0.8383603096008301, -1.898758888244629, 1.956395149230957, -0.029132800176739693, 0.014129511080682278, 1.000087857246399, -0.0956878662109375, 9362.0, 28835.0, 32767.0, 9362.0, 0.0, 7.695868015289307, -1.6821588277816772, -1.8455626964569092, 0.08905508369207382, 0.15761931351517347, -0.9560022385602736, -1.9725966156692845
465376, 0.8386732339859009, -1.899526834487915, 1.9561030864715576, -0.031294576823711395, 0.015391187742352486, 1.0019463300704956, -0.1175689697265625, 9362.0, 28835.0, 32767.0, 9362.0, 0.0, 7.695868015289307, -1.6822700500488281, -1.8455606698989868, 0.08898840099573135, 0.14605966048522695, -0.996952789289054, -1.9444587031542577
465386, 0.8381701111793518, -1.8991166353225708, 1.9554446935653687, -0.029475297778844833, 0.014496822841465473, 1.0004695653915405, -0.1175689697265625, 9362.0, 28835.0, 32767.0, 9362.0, 0.0, 7.695868015289307, -1.6821796894073486, -1.8455554246902466, 0.08903400599956512, 0.15673127379209553, -0.9530475543247974, -1.9840852189301825
465396, 0.8378576040267944, -1.8982919454574585, 1.954378604888916, -0.028150323778390884, 0.01283592451363802, 1.0005135536193848, -0.13396453857421875, 9362.0, 28835.0, 32767.0, 9362.0, 0.0, 7.695868015289307, -1.682271957397461, -1.8455498218536377, 0.088994100689888, 0.14185269405741432, -1.0131265210371225, -1.9524211248936447
465406, 0.8378077745437622, -1.89836585521698, 1.9536852836608887, -0.029750199988484383, 0.012635567225515842, 1.0020601749420166, -0.13396453857421875, 9362.0, 28835.0, 32767.0, 9362.0, 0.0, 7.695868015289307, -1.681884765625, -1.845553994178772, 0.08905920386314392, 0.1599161363349474, -0.9197591478028926, -2.0087194203955043
465416, 0.8387799859046936, -1.8988271951675415, 1.9540519714355469, -0.031752653419971466, 0.012830548919737339, 1.0012873411178589, -0.15036773681640625, 9362.0, 28835.0, 32767.0, 9362.0, 0.0, 7.695868015289307, -1.6822667121887207, -1.8455588817596436, 0.08897079527378082, 0.14614623334255786, -0.995624331409573, -1.9549863653974338
465426, 0.8395162224769592, -1.8981658220291138, 1.9526649713516235, -0.030878912657499313, 0.013496934436261654, 0.999992311000824, -0.15036773681640625, 9362.0, 28835.0, 32767.0, 9362.0, 0.0, 7.695868015289307, -1.6822835206985474, -1.845551609992981, 0.08899419009685516, 0.13825149452556576, -1.0085064836402466, -1.948788288136106
465436, 0.838123619556427, -1.9003572463989258, 1.9504997730255127, -0.029877856373786926, 0.014536920003592968, 1.0006252527236938, -0.180450439453125, 9362.0, 28835.0, 32767.0, 9362.0, 0.0, 7.695868015289307, -1.682273268699646, -1.8455605506896973, 0.08897162973880768, 0.13780350724395599, -1.0035412870388143, -1.9515088811814114
465446, 0.8386515378952026, -1.9015215635299683, 1.948634386062622, -0.029342127963900566, 0.015000325627624989, 1.002243995666504, -0.180450439453125, 9362.0, 28835.0, 32767.0, 9362.0, 0.0, 7.695868015289307, -1.6823159456253052, -1.8456652164459229, 0.08872511237859726, 0.035469311596420326, -0.9769407342903378, -1.8385626906299646
465456, 0.8397953510284424, -1.9014121294021606, 1.948677659034729, -0.029294908046722412, 0.014208738692104816, 1.0021793842315674, -0.16130828857421875, 9362.0, 28835.0, 32767.0, 9362.0, 0.0, 7.695868015289307, -1.6822562217712402, -1.8455573320388794, 0.08898235112428665, 0.14034007357522907, -1.0107755747338842, -1.9441862473401703
465466, 0.8402590155601501, -1.900988221168518, 1.948553204536438, -0.029692603275179863, 0.015696300193667412, 1.0031839609146118, -0.16130828857421875, 9362.0, 28835.0, 32767.0, 9362.0, 0.0, 7.676033973693848, -1.6821742057800293, -1.845558524131775, 0.08901332318782806, 0.16765462531834308, -0.9557036170479591, -1.9830320204649332
465476, 0.8396880030632019, -1.900659441947937, 1.9478027820587158, -0.02941228821873665, 0.014222151599824429, 1.0019274950027466, -0.2023162841796875, 9362.0, 28835.0, 32767.0, 9362.0, 0.0, 7.695868015289307, -1.6822868585586548, -1.8455582857131958, 0.08894854038953781, 0.15024886438483123, -1.0136426796038052, -1.9697193378251732
465486, 0.8404746651649475, -1.9001423120498657, 1.9481616020202637, -0.029108678922057152, 0.014690198004245758, 1.00260591506958, -0.2023162841796875, 9362.0, 28835.0, 32767.0, 9362.0, 0.0, 7.695868015289307, -1.6822667121887207, -1.8454761505126953, 0.0889529138803482, 0.07368894401788412, -1.0163162199464182, -1.9450401315945012
465496, 0.8408023118972778, -1.8996950387954712, 1.948012113571167, -0.029609132558107376, 0.012343011796474457, 1.002996802330017, -0.2023162841796875, 9362.0, 28835.0, 32767.0, 9362.0, 0.0, 7.676033973693848, -1.6822623014450073, -1.8455654382705688, 0.08900086581707001, 0.14449894054244516, -0.9970122574125071, -1.9509635510790706
465506, 0.8395960330963135, -1.9006671905517578, 1.9458646774291992, -0.031136751174926758, 0.013352404348552227, 1.0027554035186768, -0.2023162841796875, 9362.0, 28835.0, 32767.0, 9362.0, 0.0, 7.676033973693848, -1.6823043823242188, -1.8457435369491577, 0.08877365291118622, 0.10781664672031309, -0.9639627100767996, -1.8505177332979563
465516, 0.8403567671775818, -1.9013274908065796, 1.9446873664855957, -0.03127425163984299, 0.016019312664866447, 0.9997910857200623, -0.1886444091796875, 9362.0, 28835.0, 32767.0, 9362.0, 0.0, 7.695868015289307, -1.6820423603057861, -1.8455649614334106, 0.0890192985534668, 0.1368836899365088, -0.975498724044428, -1.959315163664899
465526, 0.8403695821762085, -1.9018182754516602, 1.9435343742370605, -0.029867488890886307, 0.014217490330338478, 1.0013502836227417, -0.1886444091796875, 9362.0, 28835.0, 32767.0, 9362.0, 0.0, 7.695868015289307, -1.682171106338501, -1.8454780578613281, 0.08897478878498077, 0.0798984372655814, -0.9635202192355337, -1.9715274124281008
465536, 0.8413510918617249, -1.9013144969940186, 1.9421427249908447, -0.029986971989274025, 0.01451437920331955, 1.0013893842697144, -0.23513031005859375, 9362.0, 28835.0, 32767.0, 9362.0, 0.0, 7.695868015289307, -1.682167887687683, -1.84555983543396, 0.08901435881853104, 0.14803113380853655, -0.9565687019547795, -1.9811928786558162
465546, 0.841113805770874, -1.9013481140136719, 1.9406373500823975, -0.03114829584956169, 0.012713586911559105, 1.0001921653747559, -0.23513031005859375, 9362.0, 28835.0, 32767.0, 9362.0, 0.0, 7.695868015289307, -1.6821551322937012, -1.8454818725585938, 0.08895371854305267, 0.08983608726740555, -0.9554163663261193, -1.9675428427462063
465556, 0.8406182527542114, -1.9018735885620117, 1.9394415616989136, -0.029636461287736893, 0.013725011609494686, 1.0006837844848633, -0.15857696533203125, 9362.0, 28835.0, 32767.0, 9362.0, 0.0, 7.695868015289307, -1.6819449663162231, -1.8455324172973633, 0.08914809674024582, 0.05703350553474536, -0.9994794640829525, -1.9379312657031633
465566, 0.8411784768104553, -1.9015042781829834, 1.9394898414611816, -0.02729153446853161, 0.014132115989923477, 0.9988932609558105, -0.15857696533203125, 9362.0, 28835.0, 32767.0, 9362.0, 0.0, 7.695868015289307, -1.682267427444458, -1.8455538749694824, 0.08900077641010284, 0.1406043723902336, -1.0040889656847014, -1.9458716809403465
465576, 0.8424331545829773, -1.900476098060608, 1.938105583190918, -0.02835461124777794, 0.012502701953053474, 1.0019668340682983, -0.1777191162109375, 9362.0, 28835.0, 32767.0, 9362.0, 0.0, 7.676033973693848, -1.6821553707122803, -1.8455641269683838, 0.08901862800121307, 0.1469845328904567, -0.9643061957742134, -1.9724849088317589
465586, 0.8439429998397827, -1.9004350900650024, 1.9391415119171143, -0.030111011117696762, 0.01299828290939331, 1.0009726285934448, -0.1777191162109375, 9362.0, 28835.0, 32767.0, 9362.0, 0.0, 7.695868015289307, -1.6821448802947998, -1.8455486297607422, 0.08903675526380539, 0.15094380887665276, -0.9643688198836742, -1.985355223654937
465596, 0.8431764245033264, -1.9021540880203247, 1.9378750324249268, -0.02963981218636036, 0.014025558717548847, 0.9995632171630859, -0.14763641357421875, 9362.0, 28835.0, 32767.0, 9362.0, 0.0, 7.695868015289307, -1.6822463274002075, -1.8454781770706177, 0.08896691352128983, 0.0636885228415676, -1.0262310800308967, -1.9392536714387638
465606, 0.841668426990509, -1.9024624824523926, 1.9381266832351685, -0.02988552674651146, 0.01197426300495863, 1.0006216764450073, -0.14763641357421875, 9362.0, 28835.0, 32767.0, 9362.0, 0.0, 7.695868015289307, -1.682260274887085, -1.8455594778060913, 0.08897813409566879, 0.14030720264186045, -1.014018498024484, -1.941871186099
465616, 0.8407019972801208, -1.903247356414795, 1.9374812841415405, -0.030149569734930992, 0.010018734261393547, 0.9998460412025452, -0.17224884033203125, 9362.0, 28835.0, 32767.0, 9362.0, 0.0, 7.695868015289307, -1.6821446418762207, -1.8455616235733032, 0.08902250975370407, 0.1490317710050263, -0.9678695652189901, -1.981696922175057
465626, 0.8417288661003113, -1.902748465538025, 1.9382635354995728, -0.030090685933828354, 0.012036355212330818, 1.0007729530334473, -0.17224884033203125, 9362.0, 28835.0, 32767.0, 9362.0, 0.0, 7.695868015289307, -1.682152271270752, -1.845479130744934, 0.08898959308862686, 0.08651775094343817, -0.9752447680602927, -1.9699758260271123
465636, 0.8409150838851929, -1.9056410789489746, 1.9369536638259888, -0.02977660298347473, 0.013942619785666466, 1.0021193027496338, -0.1995849609375, 9362.0, 28835.0, 32767.0, 9362.0, 0.0, 7.695868015289307, -1.682157039642334, -1.8455495834350586, 0.0890485867857933, 0.15642858657218103, -0.9642292758254598, -1.9814133401294245
465646, 0.8403475284576416, -1.9039939641952515, 1.9363237619400024, -0.030527237802743912, 0.014420545659959316, 1.0039395093917847, -0.1995849609375, 9362.0, 28835.0, 32767.0, 9362.0, 0.0, 7.695868015289307, -1.6822618246078491, -1.8455514907836914, 0.08898840099573135, 0.1398429317908394, -1.0092253601206949, -1.9544050807451168
465656, 0.8396499156951904, -1.9043973684310913, 1.9354621171951294, -0.03174594044685364, 0.011610360816121101, 1.0029990673065186, -0.1777191162109375, 9362.0, 28835.0, 32767.0, 9362.0, 0.0, 7.695868015289307, -1.6822941303253174, -1.845577359199524, 0.0889618769288063, 0.14311306539388682, -1.0019585945817937, -1.9449927928193451
465666, 0.8405705690383911, -1.9044573307037354, 1.9350513219833374, -0.03145931661128998, 0.01330783311277628, 1.0017906427383423, -0.1777191162109375, 9362.0, 28835.0, 32767.0, 9362.0, 0.0, 7.695868015289307, -1.6821643114089966, -1.845485806465149, 0.0889701172709465, 0.08603136607021905, -0.9643025436608923, -1.9689896804397287
465676, 0.8399361371994019, -1.9039403200149536, 1.9344444274902344, -0.030828282237052917, 0.014101264998316765, 1.001836895942688, -0.17224884033203125, 9362.0, 28835.0, 32767.0, 9362.0, 0.0, 7.695868015289307, -1.6822623014450073, -1.8455519676208496, 0.08898976445198059, 0.13858737688346576, -1.0113322613955233, -1.9479144163101898
465686, 0.8419337272644043, -1.9035249948501587, 1.9345799684524536, -0.030925428494811058, 0.012530462816357613, 1.0015671253204346, -0.17224884033203125, 9362.0, 28835.0, 32767.0, 9362.0, 0.0, 7.695868015289307, -1.682273268699646, -1.8455510139465332, 0.08899683505296707, 0.14150295208164593, -1.0009900272622474, -1.945546498331811
465696, 0.8425061106681824, -1.9049818515777588, 1.935209035873413, -0.030679747462272644, 0.014234901405870914, 0.9999039173126221, -0.12303924560546875, 9362.0, 28835.0, 32767.0, 9362.0, 0.0, 7.695868015289307, -1.682151198387146, -1.8455665111541748, 0.08906354010105133, 0.15208279206490183, -0.9730112916055873, -1.9658427360058608
465706, 0.8433710336685181, -1.9047999382019043, 1.934896469116211, -0.030613994225859642, 0.014110106974840164, 0.9992308616638184, -0.12303924560546875, 9362.0, 28835.0, 32767.0, 9362.0, 0.0, 7.695868015289307, -1.682268738746643, -1.8455601930618286, 0.08898106962442398, 0.1423017555420589, -1.0052324091668652, -1.9437370986240345
465716, 0.8432527184486389, -1.9028829336166382, 1.9343210458755493, -0.029816653579473495, 0.012284282594919205, 1.0021755695343018, -0.0847625732421875, 9362.0, 28835.0, 32767.0, 9362.0, 0.0, 7.695868015289307, -1.6821576356887817, -1.8455638885498047, 0.08904261887073517, 0.1496051340802073, -0.9653432939353195, -1.9806282189840325
465726, 0.8429438471794128, -1.9023774862289429, 1.934159755706787, -0.03130149096250534, 0.013076483272016048, 1.0036003589630127, -0.0847625732421875, 9362.0, 28835.0, 32767.0, 9362.0, 0.0, 7.695868015289307, -1.682280421257019, -1.8455456495285034, 0.08898468315601349, 0.14112655458216647, -0.9995618078399957, -1.9563536938771207
465736, 0.8420987129211426, -1.9005448818206787, 1.9335888624191284, -0.028667405247688293, 0.01367170549929142, 1.0019726753234863, -0.13671112060546875, 9362.0, 28835.0, 32767.0, 9362.0, 0.0, 7.695868015289307, -1.6821602582931519, -1.8454837799072266, 0.08898117393255234, 0.0868187151832715, -0.9685294842967096, -1.970200719317433
465746, 0.842693567276001, -1.900138258934021, 1.933679223060608, -0.030219679698348045, 0.013568923808634281, 1.0015652179718018, -0.13671112060546875, 9362.0, 28835.0, 32767.0, 9362.0, 0.0, 7.695868015289307, -1.6821690797805786, -1.845562219619751, 0.08905564993619919, 0.15170298759663922, -0.9608330174508808, -1.9725246917213404
465756, 0.8418276309967041, -1.9004076719284058, 1.9313257932662964, -0.03198421001434326, 0.014411801472306252, 1.001065969467163, -0.1640472412109375, 9362.0, 28835.0, 32767.0, 9362.0, 0.0, 7.695868015289307, -1.682159423828125, -1.8455578088760376, 0.08905216306447983, 0.15573116469047507, -0.9574064960721955, -1.9763476205852524
465766, 0.8418573141098022, -1.8999285697937012, 1.9312553405761719, -0.03260277956724167, 0.01299834344536066, 1.0012598037719727, -0.1640472412109375, 9362.0, 28835.0, 32767.0, 9362.0, 0.0, 7.695868015289307, -1.6822704076766968, -1.845471978187561, 0.08892735093832016, 0.060159369312294875, -1.017571630360834, -1.9297661837878854
465776, 0.8421036601066589, -1.899490475654602, 1.930949091911316, -0.031505145132541656, 0.01196395792067051, 1.0013177394866943, -0.1175689697265625, 9362.0, 28835.0, 32767.0, 9362.0, 0.0, 7.695868015289307, -1.6821695566177368, -1.8455579280853271, 0.08903470635414124, 0.15823314782640954, -0.9664641246472456, -1.9834439371947465
465786, 0.8421585559844971, -1.898285150527954, 1.9311848878860474, -0.030223676934838295, 0.012141725048422813, 1.0000817775726318, -0.1175689697265625, 9362.0, 28835.0, 32767.0, 9362.0, 0.0, 7.695868015289307, -1.6822819709777832, -1.8455560207366943, 0.0889609307050705, 0.14288066185110457, -1.0121310226249989, -1.9457878962421895
465796, 0.842488706111908, -1.8977986574172974, 1.9301331043243408, -0.029504865407943726, 0.01459645014256239, 1.0004308223724365, -0.10662841796875, 9362.0, 28835.0, 32767.0, 9362.0, 0.0, 7.695868015289307, -1.6822832822799683, -1.8455663919448853, 0.08895992487668991, 0.1425060008497997, -1.0110711753678743, -1.9470775890162533
465806, 0.8417755365371704, -1.897729754447937, 1.9305044412612915, -0.029267610982060432, 0.013523107394576073, 1.00065016746521, -0.10662841796875, 9362.0, 28835.0, 32767.0, 9362.0, 0.0, 7.695868015289307, -1.6821709871292114, -1.8454866409301758, 0.0889805257320404, 0.0856021436861829, -0.9774824971960072, -1.9724877377620536
465816, 0.8404467701911926, -1.8979707956314087, 1.9310425519943237, -0.03177768737077713, 0.013173708692193031, 1.0006593465805054, -0.13123321533203125, 9362.0, 28835.0, 32767.0, 9362.0, 0.0, 7.695868015289307, -1.6822656393051147, -1.8455634117126465, 0.08898365497589111, 0.14139667752281906, -1.0187517360292873, -1.941404291616553
465826, 0.8409489393234253, -1.8969241380691528, 1.9300142526626587, -0.03096727840602398, 0.014345359988510609, 0.9996473789215088, -0.13123321533203125, 9362.0, 28835.0, 32767.0, 9362.0, 0.0, 7.695868015289307, -1.682152509689331, -1.8455679416656494, 0.08906429260969162, 0.156133865770341, -0.9723024195920971, -1.9796173495451395
465836, 0.8403210043907166, -1.8965095281600952, 1.9275974035263062, -0.031343065202236176, 0.012698585167527199, 1.001312017440796, -0.180450439453125, 9362.0, 28835.0, 32767.0, 9362.0, 0.0, 7.676033973693848, -1.682267665863037, -1.8454903364181519, 0.08894189447164536, 0.06101194546281024, -1.0223034838670344, -1.933412668923577
465846, 0.8394443392753601, -1.8970860242843628, 1.9268556833267212, -0.03207624703645706, 0.011195739731192589, 1.0002992153167725, -0.180450439453125, 9362.0, 28835.0, 32767.0, 9362.0, 0.0, 7.695868015289307, -1.6822818517684937, -1.8455642461776733, 0.08897525072097778, 0.14023515334777478, -1.000571664114318, -1.9454186945178504
465856, 0.8380441665649414, -1.8963220119476318, 1.9278756380081177, -0.03012523613870144, 0.012859737500548363, 0.9990572929382324, -0.1995849609375, 9362.0, 28835.0, 32767.0, 9362.0, 0.0, 7.695868015289307, -1.682274341583252, -1.8454780578613281, 0.0889279693365097, 0.06670829494241355, -1.0165750035372128, -1.942516074584791
465866, 0.8385653495788574, -1.8977035284042358, 1.9273747205734253, -0.030909359455108643, 0.012038348242640495, 0.9983647465705872, -0.1995849609375, 9362.0, 28835.0, 32767.0, 9362.0, 0.0, 7.695868015289307, -1.6821573972702026, -1.8454900979995728, 0.0890008807182312, 0.07185919122146096, -0.9660991299667501, -1.971858434974807
465876, 0.8390236496925354, -1.8973278999328613, 1.926119089126587, -0.029457643628120422, 0.013239895924925804, 1.0021390914916992, -0.2105255126953125, 9362.0, 28835.0, 32767.0, 9362.0, 0.0, 7.695868015289307, -1.6819437742233276, -1.8455233573913574, 0.08913034945726395, 0.047938358603319436, -1.0030602626772804, -1.9406572511919014
465886, 0.8384937047958374, -1.8969926834106445, 1.9264395236968994, -0.030378051102161407, 0.01323646493256092, 1.0028797388076782, -0.2105255126953125, 9362.0, 28835.0, 32767.0, 9362.0, 0.0, 7.695868015289307, -1.6818290948867798, -1.8456124067306519, 0.08928172290325165, 0.13827253807615222, -0.9524345743174649, -2.002066074582044
465896, 0.8383677005767822, -1.8977323770523071, 1.9244171380996704, -0.03108261525630951, 0.013576513156294823, 1.0027987957000732, -0.2105255126953125, 9362.0, 28835.0, 32767.0, 9362.0, 0.0, 7.695868015289307, -1.682295560836792, -1.8454736471176147, 0.08894716203212738, 0.06329743713685658, -0.9926056973597497, -1.944670475632297
465906, 0.8382463455200195, -1.8976503610610962, 1.924459457397461, -0.03096914477646351, 0.015120692551136017, 1.001868486404419, -0.2105255126953125, 9362.0, 28835.0, 32767.0, 9362.0, 0.0, 7.695868015289307, -1.6822867393493652, -1.845550298690796, 0.08897045254707336, 0.13986045065276798, -1.0020737889266513, -1.9516929501508196
465916, 0.8381165266036987, -1.8973554372787476, 1.922695517539978, -0.03188694268465042, 0.013941614888608456, 1.0002102851867676, -0.23239898681640625, 9362.0, 28835.0, 32767.0, 9362.0, 0.0, 7.695868015289307, -1.6822993755340576, -1.845556616783142, 0.0889594703912735, 0.1356954916492258, -1.0014890086049206, -1.9493221186334675
465926, 0.8388039469718933, -1.8966269493103027, 1.9225456714630127, -0.030262496322393417, 0.01314343698322773, 1.001861572265625, -0.23239898681640625, 9362.0, 28835.0, 32767.0, 9362.0, 0.0, 7.695868015289307, -1.682167649269104, -1.8454865217208862, 0.08899218589067459, 0.0830135076264282, -0.9742982849357702, -1.9832202422387593
465936, 0.8382128477096558, -1.8965448141098022, 1.9224448204040527, -0.028961900621652603, 0.013249391689896584, 1.0017200708389282, -0.28160858154296875, 9362.0, 28835.0, 32767.0, 9362.0, 0.0, 7.695868015289307, -1.682279109954834, -1.8454769849777222, 0.08895531296730042, 0.0624083145575932, -1.0076430581646036, -1.9544448646005421
465946, 0.8398057818412781, -1.8939486742019653, 1.9220457077026367, -0.029307551681995392, 0.013570865616202354, 1.001964807510376, -0.28160858154296875, 9362.0, 28835.0, 32767.0, 9362.0, 0.0, 7.695868015289307, -1.682280421257019, -1.8454838991165161, 0.0889425277709961, 0.06402868349525834, -1.0074298958101338, -1.9487772703386812
465956, 0.8402761220932007, -1.8934075832366943, 1.921642541885376, -0.029438551515340805, 0.014327479526400566, 1.0006792545318604, -0.273406982421875, 9362.0, 28835.0, 32767.0, 9362.0, 0.0, 7.695868015289307, -1.6821632385253906, -1.8455500602722168, 0.08902664482593536, 0.15773495772395738, -0.9642256716138604, -1.9819173490900814
465966, 0.8417873978614807, -1.8936256170272827, 1.9221054315567017, -0.029181797057390213, 0.015131027437746525, 0.9992473125457764, -0.273406982421875, 9362.0, 28835.0, 32767.0, 9362.0, 0.0, 7.695868015289307, -1.6822752952575684, -1.8455628156661987, 0.08896420150995255, 0.1315438005088872, -1.0124683121117641, -1.9551269000157476
465976, 0.8409885168075562, -1.8949339389801025, 1.9203453063964844, -0.03258484974503517, 0.015030253678560257, 1.0014115571975708, -0.23513031005859375, 9362.0, 28835.0, 32767.0, 9362.0, 0.0, 7.695868015289307, -1.6822683811187744, -1.845550775527954, 0.08901530504226685, 0.13229721922144774, -1.0092913873862983, -1.9504543236438936
465986, 0.8404244780540466, -1.8954839706420898, 1.919859528541565, -0.0321555957198143, 0.014047086238861084, 1.0017666816711426, -0.23513031005859375, 9362.0, 28835.0, 32767.0, 9362.0, 0.0, 7.695868015289307, -1.6822746992111206, -1.8454657793045044, 0.08892825245857239, 0.07104933543885185, -0.9931709327361204, -1.9450169349326336
465996, 0.8390283584594727, -1.8930847644805908, 1.9201291799545288, -0.03057067096233368, 0.011906643398106098, 1.0011358261108398, -0.15036773681640625, 9362.0, 28835.0, 32767.0, 9362.0, 0.0, 7.676033973693848, -1.6822890043258667, -1.8455617427825928, 0.08899307250976562, 0.13785816103361542, -1.0022594425580564, -1.9536199652044723
466006, 0.8404546976089478, -1.8929164409637451, 1.9198766946792603, -0.030298300087451935, 0.012162476778030396, 1.0017701387405396, -0.15036773681640625, 9362.0, 28835.0, 32767.0, 9362.0, 0.0, 7.695868015289307, -1.682275652885437, -1.8454729318618774, 0.08894912153482437, 0.06280347889547666, -0.9982065229466741, -1.9407267253497615
466016, 0.8400110006332397, -1.8943864107131958, 1.9192842245101929, -0.028760872781276703, 0.012770295143127441, 1.002155065536499, -0.153106689453125, 9362.0, 28835.0, 32767.0, 9362.0, 0.0, 7.695868015289307, -1.6822571754455566, -1.8455547094345093, 0.08898362517356873, 0.1313186596097007, -1.006523241420183, -1.9443571889828066
466026, 0.8414567708969116, -1.8947495222091675, 1.9194233417510986, -0.029518693685531616, 0.013447972014546394, 1.0001543760299683, -0.153106689453125, 9362.0, 28835.0, 32767.0, 9362.0, 0.0, 7.695868015289307, -1.6822718381881714, -1.8455593585968018, 0.08899331092834473, 0.12878196065409026, -1.0225484278317936, -1.9521268445297808
466036, 0.8414082527160645, -1.892217755317688, 1.9177372455596924, -0.030194122344255447, 0.013453876599669456, 1.0011012554168701, -0.13396453857421875, 9362.0, 28835.0, 32767.0, 9362.0, 0.0, 7.695868015289307, -1.6822890043258667, -1.8455612659454346, 0.08898170292377472, 0.1318400187322696, -1.0149535798957459, -1.9586261938213119
466046, 0.842380940914154, -1.8916981220245361, 1.917506217956543, -0.028915254399180412, 0.01401346642524004, 1.0011762380599976, -0.13396453857421875, 9362.0, 28835.0, 32767.0, 9362.0, 0.0, 7.695868015289307, -1.6822831630706787, -1.8454676866531372, 0.08893486112356186, 0.06355156582167029, -1.000886862487846, -1.946653907349271
466056, 0.8418366312980652, -1.891920804977417, 1.9164140224456787, -0.029586607590317726, 0.014113334938883781, 0.9990262985229492, -0.12850189208984375, 9362.0, 28835.0, 32767.0, 9362.0, 0.0, 7.695868015289307, -1.6822642087936401, -1.8455506563186646, 0.08898954838514328, 0.13773156296924732, -1.0112939972407844, -1.950349477208471
466066, 0.8424098491668701, -1.8924188613891602, 1.9156893491744995, -0.03005935065448284, 0.014325855299830437, 0.9998683333396912, -0.12850189208984375, 9362.0, 28835.0, 32767.0, 9362.0, 0.0, 7.695868015289307, -1.6821606159210205, -1.845492959022522, 0.0889793187379837, 0.08294217256321412, -0.9538872286017863, -1.9849567059721545
466076, 0.8428212404251099, -1.8937761783599854, 1.9146748781204224, -0.03285263851284981, 0.013594591990113258, 1.0015372037887573, -0.12850189208984375, 9362.0, 28835.0, 32767.0, 9362.0, 0.0, 7.695868015289307, -1.6821730136871338, -1.8454960584640503, 0.08897183835506439, 0.08097872937748105, -0.9760201753029207, -1.9801566987622263
466086, 0.8435061573982239, -1.8934942483901978, 1.9141124486923218, -0.032150544226169586, 0.013553564436733723, 1.001081109046936, -0.12850189208984375, 9362.0, 28835.0, 32767.0, 9362.0, 0.0, 7.695868015289307, -1.6821775436401367, -1.8455604314804077, 0.08900874853134155, 0.15179083662418333, -0.9598261282150986, -1.9747467841372939
466096, 0.8447198271751404, -1.894741177558899, 1.9136863946914673, -0.02996823564171791, 0.014699874445796013, 1.0019932985305786, -0.09295654296875, 9362.0, 28835.0, 32767.0, 9362.0, 0.0, 7.695868015289307, -1.682186245918274, -1.8455724716186523, 0.08901787549257278, 0.15336427016252183, -0.9621216458470769, -1.9901189298788267
466106, 0.8448294401168823, -1.8952512741088867, 1.912534475326538, -0.029745686799287796, 0.011764934286475182, 1.0007781982421875, -0.09295654296875, 9362.0, 28835.0, 32767.0, 9362.0, 0.0, 7.695868015289307, -1.6819406747817993, -1.845546841621399, 0.08915431052446365, 0.05056360085251054, -1.0135132357851262, -1.9316903331141657
466116, 0.8437154293060303, -1.8977895975112915, 1.9126579761505127, -0.02944817580282688, 0.012902725487947464, 1.002760410308838, -0.06562042236328125, 9362.0, 28835.0, 32767.0, 9362.0, 0.0, 7.695868015289307, -1.682275652885437, -1.8454828262329102, 0.08895015716552734, 0.060661977287997486, -1.0233472585042023, -1.9478320568979928
466126, 0.8443470001220703, -1.8972753286361694, 1.9119930267333984, -0.029078571125864983, 0.013019220903515816, 1.00282621383667, -0.06562042236328125, 9362.0, 28835.0, 32767.0, 9362.0, 0.0, 7.695868015289307, -1.68227219581604, -1.845569133758545, 0.08898001164197922, 0.13460092574363355, -0.9976310958168142, -1.9379654523690637
466136, 0.8445043563842773, -1.8978630304336548, 1.9124828577041626, -0.03151260316371918, 0.013007160276174545, 1.0015674829483032, -0.04648590087890625, 9362.0, 28835.0, 32767.0, 9362.0, 0.0, 7.695868015289307, -1.6821990013122559, -1.8454914093017578, 0.0889773815870285, 0.0864450223872954, -0.9520834911991756, -1.97595734553283
466146, 0.8442834615707397, -1.897131085395813, 1.9113914966583252, -0.03122912347316742, 0.012768310494720936, 1.0027072429656982, -0.04648590087890625, 9362.0, 28835.0, 32767.0, 9362.0, 0.0, 7.695868015289307, -1.6821811199188232, -1.84553861618042, 0.08904386311769485, 0.16574264641752628, -0.9531413471179064, -1.984428616895243
466156, 0.8434077501296997, -1.897784948348999, 1.9103845357894897, -0.02921196259558201, 0.014341806061565876, 0.9994509816169739, -0.0765533447265625, 9362.0, 28835.0, 32767.0, 9362.0, 0.0, 7.695868015289307, -1.6821564435958862, -1.8455594778060913, 0.08904586732387543, 0.15218489068181582, -0.9586792436446103, -1.9666574957367233
466166, 0.8445503115653992, -1.899648904800415, 1.9093093872070312, -0.029542218893766403, 0.013993550091981888, 0.9999853372573853, -0.0765533447265625, 9362.0, 28835.0, 32767.0, 9362.0, 0.0, 7.695868015289307, -1.6821740865707397, -1.8455760478973389, 0.0890512764453888, 0.15485770298332227, -0.9608502786626048, -1.9774150321867894
466176, 0.8453484177589417, -1.901219367980957, 1.9079700708389282, -0.03078526072204113, 0.013959330506622791, 1.0011012554168701, -0.15584564208984375, 9362.0, 28835.0, 32767.0, 9362.0, 0.0, 7.695868015289307, -1.6822751760482788, -1.8455547094345093, 0.08896730840206146, 0.13632981937416902, -0.999366948663436, -1.9449968316779072
466186, 0.8459582328796387, -1.9006617069244385, 1.907792091369629, -0.03034447506070137, 0.013966199941933155, 1.0012516975402832, -0.15584564208984375, 9362.0, 28835.0, 32767.0, 9362.0, 0.0, 7.695868015289307, -1.6822834014892578, -1.8455394506454468, 0.08899065852165222, 0.14007950079233872, -1.0115281723491023, -1.9549214717574164
466196, 0.8464716672897339, -1.9006712436676025, 1.9073107242584229, -0.030448518693447113, 0.013833301141858101, 1.0034959316253662, -0.12850189208984375, 9362.0, 28835.0, 32767.0, 9362.0, 0.0, 7.695868015289307, -1.6822497844696045, -1.8455560207366943, 0.08899596333503723, 0.13347218788193463, -1.0045238790888789, -1.944969977080324
466206, 0.8483077883720398, -1.8995338678359985, 1.9051965475082397, -0.02797061577439308, 0.015144769102334976, 1.0026330947875977, -0.12850189208984375, 9362.0, 28835.0, 32767.0, 9362.0, 0.0, 7.695868015289307, -1.6822733879089355, -1.8455543518066406, 0.08900970220565796, 0.13820951990570793, -1.0080209886146747, -1.9459627287690682
466216, 0.8495328426361084, -1.9003355503082275, 1.9041416645050049, -0.029061367735266685, 0.015633011236786842, 1.000957727432251, -0.14490509033203125, 9362.0, 28835.0, 32767.0, 9362.0, 0.0, 7.695868015289307, -1.6821874380111694, -1.8455795049667358, 0.08902417123317719, 0.1548866864244211, -0.9545158419757627, -1.969077907186051
466226, 0.8481303453445435, -1.8991634845733643, 1.90228271484375, -0.02940852753818035, 0.01482892781496048, 1.0015983581542969, -0.14490509033203125, 9362.0, 28835.0, 32767.0, 9362.0, 0.0, 7.695868015289307, -1.6822723150253296, -1.8455440998077393, 0.08896783739328384, 0.14308516138416885, -1.0071811402686421, -1.9572250141993541
466236, 0.8476865291595459, -1.8982168436050415, 1.9009103775024414, -0.030413364991545677, 0.013940059579908848, 1.0020158290863037, -0.2761383056640625, 9362.0, 28835.0, 32767.0, 9362.0, 0.0, 7.695868015289307, -1.682173728942871, -1.8454681634902954, 0.08902157843112946, 0.08103529060209748, -0.9556376643314195, -1.970048526485928
466246, 0.8489732146263123, -1.8964135646820068, 1.8997560739517212, -0.030117236077785492, 0.014846434816718102, 1.00130295753479, -0.2761383056640625, 9362.0, 28835.0, 32767.0, 9362.0, 0.0, 7.695868015289307, -1.682293176651001, -1.8455582857131958, 0.08900421112775803, 0.13310010544537212, -1.0000416074480256, -1.9514431951820195
466256, 0.8494309782981873, -1.8969647884368896, 1.8992482423782349, -0.030121907591819763, 0.013715322129428387, 1.0020487308502197, -0.29254150390625, 9362.0, 28835.0, 32767.0, 9362.0, 0.0, 7.695868015289307, -1.68228018283844, -1.8454818725585938, 0.08896087110042572, 0.06919337098004665, -1.0062947076424962, -1.946664152916179
466266, 0.8468468189239502, -1.893984079360962, 1.898507833480835, -0.030054591596126556, 0.013397402130067348, 1.0021919012069702, -0.29254150390625, 9362.0, 28835.0, 32767.0, 9362.0, 0.0, 7.695868015289307, -1.6823030710220337, -1.8455575704574585, 0.08898011595010757, 0.13456957534544076, -1.005927876505524, -1.9470958768664395
466276, 0.8468409776687622, -1.8923097848892212, 1.8989301919937134, -0.028294552117586136, 0.010457041673362255, 0.999478816986084, -0.194122314453125, 9362.0, 28835.0, 32767.0, 9362.0, 0.0, 7.695868015289307, -1.6821626424789429, -1.8454793691635132, 0.08902552723884583, 0.08183627600268598, -0.9687490782866917, -1.9791133471622855
466286, 0.8465592861175537, -1.8929826021194458, 1.8982614278793335, -0.028149565681815147, 0.01279233954846859, 0.9990440011024475, -0.194122314453125, 9362.0, 28835.0, 32767.0, 9362.0, 0.0, 7.695868015289307, -1.6821699142456055, -1.8455684185028076, 0.08905531466007233, 0.1473923964317601, -0.9578045546069234, -1.9695971702044714
466296, 0.848115086555481, -1.8933736085891724, 1.8966648578643799, -0.02956044115126133, 0.014301009476184845, 0.9970685243606567, -0.24607086181640625, 9362.0, 28835.0, 32767.0, 9362.0, 0.0, 7.695868015289307, -1.682172417640686, -1.8455662727355957, 0.08904121816158295, 0.16320926422695733, -0.9524594604587833, -1.9688592722822023
466306, 0.8481521010398865, -1.894164800643921, 1.895904302597046, -0.030553214251995087, 0.01350608840584755, 0.9987945556640625, -0.24607086181640625, 9362.0, 28835.0, 32767.0, 9362.0, 0.0, 7.695868015289307, -1.6822729110717773, -1.8455450534820557, 0.08902522921562195, 0.14112507134607477, -1.0112604698006749, -1.9481023397749444
466316, 0.8479002118110657, -1.8941740989685059, 1.8961458206176758, -0.028901420533657074, 0.015449427999556065, 1.002549171447754, -0.28160858154296875, 9362.0, 28835.0, 32767.0, 9362.0, 0.0, 7.695868015289307, -1.6821812391281128, -1.8455575704574585, 0.0890381708741188, 0.15593097898245312, -0.9550285224799211, -1.9789463990900358
466326, 0.8480533957481384, -1.8942028284072876, 1.8960411548614502, -0.029121745377779007, 0.015166298486292362, 1.0024371147155762, -0.28160858154296875, 9362.0, 28835.0, 32767.0, 9362.0, 0.0, 7.695868015289307, -1.6822696924209595, -1.8454912900924683, 0.0889384001493454, 0.06685472596320917, -0.9971595772283024, -1.928980088436424
466336, 0.8473080396652222, -1.8937840461730957, 1.895703673362732, -0.028209492564201355, 0.011752057820558548, 1.001395583152771, -0.24332427978515625, 9362.0, 28835.0, 32767.0, 9362.0, 0.0, 7.695868015289307, -1.6819043159484863, -1.8455561399459839, 0.08905930817127228, 0.15849858487923033, -0.9094680782750117, -2.0030003431545134
466346, 0.8485521674156189, -1.8936408758163452, 1.8959881067276, -0.028906119987368584, 0.013206550851464272, 1.000928521156311, -0.24332427978515625, 9362.0, 28835.0, 32767.0, 9362.0, 0.0, 7.695868015289307, -1.6821722984313965, -1.8455655574798584, 0.08905840665102005, 0.15731761035657232, -0.9694528679882239, -1.9653312094259323
466356, 0.8490095138549805, -1.892897605895996, 1.8947385549545288, -0.028859354555606842, 0.014312014915049076, 1.0003888607025146, -0.273406982421875, 9362.0, 28835.0, 32767.0, 9362.0, 0.0, 7.695868015289307, -1.6821813583374023, -1.8455493450164795, 0.08903412520885468, 0.16261688073465433, -0.9513160593923544, -1.9774062464690496
466366, 0.8478739857673645, -1.8933194875717163, 1.8935112953186035, -0.02965247444808483, 0.014770671725273132, 0.9990408420562744, -0.273406982421875, 9362.0, 28835.0, 32767.0, 9362.0, 0.0, 7.695868015289307, -1.6822854280471802, -1.8455547094345093, 0.08899042010307312, 0.14033376200676392, -1.0028233014760701, -1.9494275982152138
466376, 0.8477230072021484, -1.8918241262435913, 1.8944252729415894, -0.030283035710453987, 0.014482716098427773, 1.0001568794250488, -0.23513031005859375, 9362.0, 28835.0, 32767.0, 9362.0, 0.0, 7.695868015289307, -1.6822669506072998, -1.8454718589782715, 0.08896810561418533, 0.06471869272433689, -1.0079265978196759, -1.9398938102396937
466386, 0.8466618061065674, -1.8909024000167847, 1.8949660062789917, -0.0305478572845459, 0.01403491385281086, 1.0000109672546387, -0.23513031005859375, 9362.0, 28835.0, 32767.0, 9362.0, 0.0, 7.695868015289307, -1.6821892261505127, -1.8455702066421509, 0.0890529602766037, 0.15503205491778807, -0.9443785098942499, -1.9687095051932675
466396, 0.8470421433448792, -1.8911875486373901, 1.8947038650512695, -0.030552640557289124, 0.015206840820610523, 1.001396656036377, -0.2105255126953125, 9362.0, 28835.0, 32767.0, 9362.0, 0.0, 7.695868015289307, -1.6822704076766968, -1.845475435256958, 0.08894775807857513, 0.06418922188498115, -1.00006406525506, -1.9452836953198358
466406, 0.8462327122688293, -1.890083909034729, 1.8918976783752441, -0.030762430280447006, 0.013970727100968361, 1.000826358795166, -0.2105255126953125, 9362.0, 28835.0, 32767.0, 9362.0, 0.0, 7.695868015289307, -1.6821726560592651, -1.845475673675537, 0.0889710932970047, 0.08552782428811213, -0.9598155411416087, -1.9749242248246934
466416, 0.8450639843940735, -1.8913010358810425, 1.8910138607025146, -0.029522351920604706, 0.011808020994067192, 0.9995954632759094, -0.300750732421875, 9362.0, 28835.0, 32767.0, 9362.0, 0.0, 7.695868015289307, -1.6821798086166382, -1.845567226409912, 0.08901999145746231, 0.1512894007871934, -0.9512336801647905, -1.9666218318607167
466426, 0.8461087942123413, -1.8907198905944824, 1.8906712532043457, -0.03051079250872135, 0.014475054107606411, 0.9997124671936035, -0.300750732421875, 9362.0, 28835.0, 32767.0, 9362.0, 0.0, 7.695868015289307, -1.6821856498718262, -1.8455649614334106, 0.08901753276586533, 0.15338746757238347, -0.9421859116694975, -1.970471012818144
466436, 0.8449223041534424, -1.8894646167755127, 1.890529990196228, -0.02921995520591736, 0.014700054191052914, 1.001567006111145, -0.28160858154296875, 9362.0, 28835.0, 32767.0, 9362.0, 0.0, 7.695868015289307, -1.682276964187622, -1.8455579280853271, 0.08898530900478363, 0.13256250603882114, -1.0063051837044554, -1.9479705989764209
466446, 0.8443787693977356, -1.8906234502792358, 1.890002965927124, -0.02902820147573948, 0.01185070164501667, 0.999862015247345, -0.28160858154296875, 9362.0, 28835.0, 32767.0, 9362.0, 0.0, 7.695868015289307, -1.6822822093963623, -1.8455530405044556, 0.08898494392633438, 0.13547139472047312, -0.9925510748090289, -1.9500386410988562
466456, 0.8441262245178223, -1.8916198015213013, 1.8904355764389038, -0.030654650181531906, 0.012684697285294533, 0.9988738894462585, -0.21872711181640625, 9362.0, 28835.0, 32767.0, 9362.0, 0.0, 7.695868015289307, -1.68228280544281, -1.8455616235733032, 0.08899076282978058, 0.1348415045321414, -1.0193685106262933, -1.9497011822485675
466466, 0.8449445962905884, -1.8918792009353638, 1.889983057975769, -0.03216581046581268, 0.013853788375854492, 1.0013957023620605, -0.21872711181640625, 9362.0, 28835.0, 32767.0, 9362.0, 0.0, 7.695868015289307, -1.6822675466537476, -1.845560908317566, 0.08897276967763901, 0.13130085554559925, -1.0090551278353814, -1.943927560935466
466476, 0.844756007194519, -1.8908063173294067, 1.889121174812317, -0.030165566131472588, 0.014319210313260555, 1.0016059875488281, -0.24332427978515625, 9362.0, 28835.0, 32767.0, 9362.0, 0.0, 7.695868015289307, -1.6818653345108032, -1.8456025123596191, 0.08923614770174026, 0.14042705957619633, -0.9480427969467371, -1.9915209396109355
466486, 0.8444852232933044, -1.8924142122268677, 1.8885598182678223, -0.030560730025172234, 0.01423454936593771, 1.0020041465759277, -0.24332427978515625, 9362.0, 28835.0, 32767.0, 9362.0, 0.0, 7.695868015289307, -1.6822657585144043, -1.8455555438995361, 0.0889950767159462, 0.13623213791609695, -1.0169660253359893, -1.9503417641019063
466496, 0.842978835105896, -1.892444133758545, 1.887311577796936, -0.029965436086058617, 0.012753966264426708, 1.0011359453201294, -0.27066802978515625, 9362.0, 28835.0, 32767.0, 9362.0, 0.0, 7.695868015289307, -1.6821733713150024, -1.8454824686050415, 0.0889967530965805, 0.08485247106043867, -0.9584324690906953, -1.9706598898374086
466506, 0.8434082865715027, -1.891993761062622, 1.885928750038147, -0.03033321723341942, 0.012912091799080372, 1.0002589225769043, -0.27066802978515625, 9362.0, 28835.0, 32767.0, 9362.0, 0.0, 7.695868015289307, -1.6822682619094849, -1.845555067062378, 0.08901702612638474, 0.13662383197991904, -1.0121662961208244, -1.9456968185176067
466516, 0.8440980315208435, -1.8921865224838257, 1.8849267959594727, -0.029931537806987762, 0.013789141550660133, 0.9989855289459229, -0.3034820556640625, 9362.0, 28835.0, 32767.0, 9362.0, 0.0, 7.695868015289307, -1.6821626424789429, -1.8455653190612793, 0.08905414491891861, 0.14120538437008504, -0.9665682307332304, -1.9800613670582585
466526, 0.8443870544433594, -1.8910192251205444, 1.8850432634353638, -0.030302327126264572, 0.012571136467158794, 1.001368522644043, -0.3034820556640625, 9362.0, 28835.0, 32767.0, 9362.0, 0.0, 7.695868015289307, -1.6821690797805786, -1.8455606698989868, 0.08902066946029663, 0.15672696589329838, -0.9645622090035886, -1.978461234714138
466536, 0.8445430994033813, -1.8924846649169922, 1.883398175239563, -0.029360149055719376, 0.013049501925706863, 1.002558708190918, -0.2296600341796875, 9362.0, 28835.0, 32767.0, 9362.0, 0.0, 7.695868015289307, -1.682163953781128, -1.8454879522323608, 0.08897347003221512, 0.0828028320281061, -0.9692246825507596, -1.9692314124137893
466546, 0.8450008630752563, -1.8943918943405151, 1.882384181022644, -0.028837677091360092, 0.01389419287443161, 0.9996789693832397, -0.2296600341796875, 9362.0, 28835.0, 32767.0, 9362.0, 0.0, 7.695868015289307, -1.6821749210357666, -1.8454883098602295, 0.08899134397506714, 0.08755924335430505, -0.9634661591647102, -1.963453055890925
466556, 0.8454412221908569, -1.8914070129394531, 1.8812071084976196, -0.030424250289797783, 0.014146130532026291, 1.0004875659942627, -0.2023162841796875, 9362.0, 28835.0, 32767.0, 9362.0, 0.0, 7.695868015289307, -1.6818333864212036, -1.8456064462661743, 0.08927412331104279, 0.1400560177042546, -0.9541480167911232, -1.9854460983513986
466566, 0.845069169998169, -1.891236662864685, 1.8812543153762817, -0.02886921539902687, 0.014255126938223839, 1.0004754066467285, -0.2023162841796875, 9362.0, 28835.0, 32767.0, 9362.0, 0.0, 7.695868015289307, -1.6822644472122192, -1.845557689666748, 0.0890163704752922, 0.13672620265058053, -1.0100087790449948, -1.945283946576558
466576, 0.8451103568077087, -1.8916020393371582, 1.8816680908203125, -0.030647292733192444, 0.013550079427659512, 1.001137614250183, -0.15584564208984375, 9362.0, 28835.0, 32767.0, 9362.0, 0.0, 7.695868015289307, -1.6822926998138428, -1.8455513715744019, 0.08897632360458374, 0.13020800090751844, -0.9979663484850221, -1.9514706212389368
466586, 0.8463545441627502, -1.8923280239105225, 1.8812956809997559, -0.0313916951417923, 0.015349454246461391, 1.0001273155212402, -0.15584564208984375, 9362.0, 28835.0, 32767.0, 9362.0, 0.0, 7.695868015289307, -1.682283878326416, -1.8454948663711548, 0.0889330729842186, 0.06172498001352236, -1.0083233905258737, -1.9312396350080379
466596, 0.8461785912513733, -1.8918709754943848, 1.8805996179580688, -0.031951356679201126, 0.016580531373620033, 1.0010323524475098, -0.2159881591796875, 9362.0, 28835.0, 32767.0, 9362.0, 0.0, 7.695868015289307, -1.6822761297225952, -1.845559000968933, 0.08898748457431793, 0.13664110888037398, -1.0080262933138897, -1.9464732160243534
466606, 0.8458369970321655, -1.8914470672607422, 1.8802224397659302, -0.030279409140348434, 0.013086702674627304, 1.0010693073272705, -0.2159881591796875, 9362.0, 28835.0, 32767.0, 9362.0, 0.0, 7.695868015289307, -1.682289719581604, -1.8454692363739014, 0.08893784135580063, 0.06571189471802615, -1.0072192820669557, -1.938006267785605
466616, 0.8451759815216064, -1.8908783197402954, 1.8801734447479248, -0.029961198568344116, 0.01354752667248249, 0.9990383386611938, -0.1640472412109375, 9362.0, 28835.0, 32767.0, 9362.0, 0.0, 7.695868015289307, -1.6822236776351929, -1.8457221984863281, 0.08882582932710648, 0.12788838475363032, -0.9188414380566599, -1.8737769070929629
466626, 0.8444632291793823, -1.8925995826721191, 1.8803273439407349, -0.029659876599907875, 0.014150816947221756, 1.0006099939346313, -0.1640472412109375, 9362.0, 28835.0, 32767.0, 9362.0, 0.0, 7.695868015289307, -1.6823036670684814, -1.8455619812011719, 0.08896175026893616, 0.1419183530638018, -0.9993130173655231, -1.9438399687048435
466636, 0.8435508012771606, -1.8926390409469604, 1.8798824548721313, -0.03076395019888878, 0.013178428635001183, 1.0006335973739624, -0.22418975830078125, 9362.0, 28835.0, 32767.0, 9362.0, 0.0, 7.695868015289307, -1.6822941303253174, -1.8454700708389282, 0.08892738074064255, 0.058197015627133857, -1.0073940418611187, -1.942731712369286
466646, 0.8416773080825806, -1.8920059204101562, 1.8789730072021484, -0.029030876234173775, 0.012415079399943352, 0.9990476369857788, -0.22418975830078125, 9362.0, 28835.0, 32767.0, 9362.0, 0.0, 7.695868015289307, -1.682265043258667, -1.8454806804656982, 0.08894592523574829, 0.0630488456386713, -1.0102321009725586, -1.9295233908394898
466656, 0.8414444327354431, -1.8918042182922363, 1.8787736892700195, -0.02930261380970478, 0.013918736018240452, 0.9987139701843262, -0.1913909912109375, 9362.0, 28835.0, 32767.0, 9362.0, 0.0, 7.695868015289307, -1.6821722984313965, -1.845549464225769, 0.08904406428337097, 0.14921289625855702, -0.9581899968976018, -1.9801003882514279
466666, 0.8410963416099548, -1.8933231830596924, 1.8783423900604248, -0.03006982058286667, 0.01536102220416069, 1.0015254020690918, -0.1913909912109375, 9362.0, 28835.0, 32767.0, 9362.0, 0.0, 7.695868015289307, -1.6821786165237427, -1.845576286315918, 0.0890311598777771, 0.1549794900163768, -0.9551316625435788, -1.9787379720980736
466676, 0.8413054943084717, -1.8926310539245605, 1.87932288646698, -0.02932225726544857, 0.01448549423366785, 1.0033848285675049, -0.22145843505859375, 9362.0, 28835.0, 32767.0, 9362.0, 0.0, 7.695868015289307, -1.6821889877319336, -1.8454861640930176, 0.08900762349367142, 0.07816294536209893, -0.9514756972531586, -1.9637846503182426
466686, 0.8427020311355591, -1.8902052640914917, 1.8786324262619019, -0.028494860976934433, 0.016666412353515625, 1.0004518032073975, -0.22145843505859375, 9362.0, 28835.0, 32767.0, 9362.0, 0.0, 7.695868015289307, -1.6822776794433594, -1.8455649614334106, 0.08900833874940872, 0.13794239165054767, -1.0078391069716872, -1.9456070455476342
466696, 0.8420406579971313, -1.8894749879837036, 1.8791821002960205, -0.02946571819484234, 0.013549861498177052, 1.0008199214935303, -0.32535552978515625, 9362.0, 28835.0, 32767.0, 9362.0, 0.0, 7.695868015289307, -1.682174563407898, -1.8454784154891968, 0.08898305892944336, 0.08277233919819581, -0.9592647507535332, -1.9731186299108177
466706, 0.8392106890678406, -1.889589548110962, 1.8779937028884888, -0.028677286580204964, 0.011777667328715324, 1.0009040832519531, -0.32535552978515625, 9362.0, 28835.0, 32767.0, 9362.0, 0.0, 7.695868015289307, -1.6821786165237427, -1.84555184841156, 0.08903174847364426, 0.15484237839270912, -0.9706684171713391, -1.9810270728123398
466716, 0.8393511176109314, -1.890146017074585, 1.8780910968780518, -0.02992812730371952, 0.012141821905970573, 1.0019128322601318, -0.25699615478515625, 9362.0, 28835.0, 32767.0, 9362.0, 0.0, 7.695868015289307, -1.682190179824829, -1.84556245803833, 0.08902708441019058, 0.15104740224851695, -0.9487861812428378, -1.9708987293571145
466726, 0.8392037153244019, -1.8910492658615112, 1.8769742250442505, -0.03158068656921387, 0.012692289426922798, 1.0008145570755005, -0.25699615478515625, 9362.0, 28835.0, 32767.0, 9362.0, 0.0, 7.695868015289307, -1.682276725769043, -1.8455525636672974, 0.08898734301328659, 0.13111924469543046, -1.0127464062794331, -1.9479969561488897
466736, 0.8383720517158508, -1.8925034999847412, 1.8763222694396973, -0.032022129744291306, 0.012339371256530285, 1.0014444589614868, -0.24607086181640625, 9362.0, 28835.0, 32767.0, 9362.0, 0.0, 7.695868015289307, -1.682161569595337, -1.8455569744110107, 0.0890616923570633, 0.15208804447749846, -0.9600686745480971, -1.9795300126253204
466746, 0.8402215242385864, -1.8929468393325806, 1.8758795261383057, -0.0290337223559618, 0.01402460876852274, 1.0019944906234741, -0.24607086181640625, 9362.0, 28835.0, 32767.0, 9362.0, 0.0, 7.695868015289307, -1.6822750568389893, -1.8454748392105103, 0.08895593881607056, 0.061035701414871475, -1.0199154546636464, -1.9465975702092415
466756, 0.8407524824142456, -1.892237663269043, 1.874970555305481, -0.031026199460029602, 0.014289269223809242, 1.0018306970596313, -0.2105255126953125, 9362.0, 28835.0, 32767.0, 9362.0, 0.0, 7.695868015289307, -1.6821829080581665, -1.8454734086990356, 0.08898745477199554, 0.07710723560729499, -0.9627398224199339, -1.9687751910702158
466766, 0.8407403826713562, -1.891294002532959, 1.873749852180481, -0.030226267874240875, 0.01446971669793129, 1.0009338855743408, -0.2105255126953125, 9362.0, 28835.0, 32767.0, 9362.0, 0.0, 7.695868015289307, -1.6822928190231323, -1.845485806465149, 0.08894920349121094, 0.060259770853888374, -0.9967932755886295, -1.9453328967717536
466776, 0.8408021926879883, -1.891032338142395, 1.8723045587539673, -0.029271982610225677, 0.013671020045876503, 1.0008565187454224, -0.2952728271484375, 9362.0, 28835.0, 32767.0, 9362.0, 0.0, 7.695868015289307, -1.6822011470794678, -1.8455575704574585, 0.08902348577976227, 0.15344988877159615, -0.9571667255817147, -1.975659552270038
466786, 0.8411056995391846, -1.8897980451583862, 1.8711223602294922, -0.02998591586947441, 0.01269820798188448, 0.999742865562439, -0.2952728271484375, 9362.0, 28835.0, 32767.0, 9362.0, 0.0, 7.695868015289307, -1.6821742057800293, -1.8455580472946167, 0.08902657777070999, 0.15183879178513848, -0.9464951144922225, -1.9668428606017199
466796, 0.8405936360359192, -1.8886955976486206, 1.870216727256775, -0.029844650998711586, 0.012995466589927673, 1.0002306699752808, -0.311676025390625, 9362.0, 28835.0, 32767.0, 9362.0, 0.0, 7.695868015289307, -1.6821709871292114, -1.8455626964569092, 0.08904117345809937, 0.15396700793804438, -0.9583840952922458, -1.9658003819942897
466806, 0.8418799638748169, -1.8880198001861572, 1.8691091537475586, -0.027374593541026115, 0.013672162778675556, 1.0004171133041382, -0.311676025390625, 9362.0, 28835.0, 32767.0, 9362.0, 0.0, 7.695868015289307, -1.6822888851165771, -1.8455556631088257, 0.08898863941431046, 0.13811854138868268, -1.0057546441851173, -1.9437176775386846
466816, 0.8420698642730713, -1.887670874595642, 1.8687719106674194, -0.030917201191186905, 0.014860259369015694, 1.0005872249603271, -0.24607086181640625, 9362.0, 28835.0, 32767.0, 9362.0, 0.0, 7.695868015289307, -1.6821746826171875, -1.8455500602722168, 0.08904629945755005, 0.15220001904608252, -0.9649565786592689, -1.9769661668904477
466826, 0.8429691195487976, -1.8867172002792358, 1.8684864044189453, -0.03135496750473976, 0.014674548991024494, 0.9991093277931213, -0.24607086181640625, 9362.0, 28835.0, 32767.0, 9362.0, 0.0, 7.695868015289307, -1.6821571588516235, -1.8455514907836914, 0.08902288228273392, 0.15246931637665398, -0.961771550361135, -1.9769121736655455
466836, 0.8416812419891357, -1.8874691724777222, 1.8675506114959717, -0.030077826231718063, 0.014367884024977684, 0.9995672106742859, -0.35543060302734375, 9362.0, 28835.0, 32767.0, 9362.0, 0.0, 7.695868015289307, -1.6822915077209473, -1.8455488681793213, 0.08897410333156586, 0.13874018106664793, -0.9996415965848087, -1.949684531725779
466846, 0.8413779139518738, -1.8871266841888428, 1.8668582439422607, -0.029019396752119064, 0.013391485437750816, 1.0022796392440796, -0.35543060302734375, 9362.0, 28835.0, 32767.0, 9362.0, 0.0, 7.695868015289307, -1.682180643081665, -1.845481038093567, 0.08899353444576263, 0.0830320823127599, -0.951070437936778, -1.963668563912368
466856, 0.8421821594238281, -1.887441873550415, 1.8660527467727661, -0.028930777683854103, 0.01655406877398491, 1.0026334524154663, -0.34449005126953125, 9362.0, 28835.0, 32767.0, 9362.0, 0.0, 7.695868015289307, -1.6822924613952637, -1.8455555438995361, 0.0889933854341507, 0.14460280903286293, -1.0063081504929698, -1.9446160889260906
466866, 0.842177152633667, -1.8879657983779907, 1.8647319078445435, -0.030065272003412247, 0.012830628082156181, 1.003201961517334, -0.34449005126953125, 9362.0, 28835.0, 32767.0, 9362.0, 0.0, 7.695868015289307, -1.6821671724319458, -1.8455463647842407, 0.08904998004436493, 0.15623397855082546, -0.9625197411268118, -1.9672577510542635
466876, 0.8427008986473083, -1.8859587907791138, 1.8638005256652832, -0.031160123646259308, 0.01424137968569994, 1.0027440786361694, -0.32808685302734375, 9362.0, 28835.0, 32767.0, 9362.0, 0.0, 7.695868015289307, -1.6821874380111694, -1.845472812652588, 0.08897648006677628, 0.08770877174761957, -0.9471547139999927, -1.9662698217872723
466886, 0.843417227268219, -1.88448965549469, 1.8640947341918945, -0.02962750941514969, 0.014535523019731045, 1.0004256963729858, -0.32808685302734375, 9362.0, 28835.0, 32767.0, 9362.0, 0.0, 7.695868015289307, -1.6822819709777832, -1.8455735445022583, 0.08898458629846573, 0.13741724941079167, -1.0090953072237312, -1.9435025524617087
466896, 0.8448036313056946, -1.8854305744171143, 1.8630553483963013, -0.03086463361978531, 0.014768493361771107, 1.0000011920928955, -0.30621337890625, 9362.0, 28835.0, 32767.0, 9362.0, 0.0, 7.695868015289307, -1.6821798086166382, -1.8454943895339966, 0.08898197114467621, 0.07831537406090999, -0.9642817333331948, -1.9673456000179725
466906, 0.843946635723114, -1.887129783630371, 1.862714409828186, -0.03173314034938812, 0.01248910278081894, 1.000449776649475, -0.30621337890625, 9362.0, 28835.0, 32767.0, 9362.0, 0.0, 7.695868015289307, -1.6822974681854248, -1.8455476760864258, 0.08898849785327911, 0.14393715062899226, -0.9983496204237099, -1.9487856445386917
466916, 0.8437057733535767, -1.885839819908142, 1.8618359565734863, -0.03026386722922325, 0.013430571183562279, 1.000819444656372, -0.24332427978515625, 9362.0, 28835.0, 32767.0, 9362.0, 0.0, 7.695868015289307, -1.68217933177948, -1.845562219619751, 0.08903170377016068, 0.155679208064334, -0.9625622436392121, -1.976607917430799
466926, 0.8433152437210083, -1.8831299543380737, 1.8615318536758423, -0.02920258790254593, 0.013447870500385761, 0.9983835220336914, -0.24332427978515625, 9362.0, 28835.0, 32767.0, 9362.0, 0.0, 7.695868015289307, -1.6821731328964233, -1.8455712795257568, 0.08902982622385025, 0.1513602685106512, -0.9554921651658788, -1.968640579530368
466936, 0.8441960215568542, -1.8849776983261108, 1.8606922626495361, -0.030343974009156227, 0.012853262946009636, 0.9993653297424316, -0.1968536376953125, 9362.0, 28835.0, 32767.0, 9362.0, 0.0, 7.695868015289307, -1.6822872161865234, -1.8454864025115967, 0.08894433081150055, 0.06385806279036295, -0.9950297245908644, -1.9376425172620662
466946, 0.8451853394508362, -1.8863568305969238, 1.8592382669448853, -0.029277378693223, 0.013573650270700455, 1.0012590885162354, -0.1968536376953125, 9362.0, 28835.0, 32767.0, 9362.0, 0.0, 7.695868015289307, -1.6821759939193726, -1.8455588817596436, 0.08904533833265305, 0.16190188665552716, -0.9622983502322313, -1.9725079399886278
466956, 0.8456186652183533, -1.8887228965759277, 1.8590459823608398, -0.030312132090330124, 0.014643603935837746, 1.0010840892791748, -0.2296600341796875, 9362.0, 28835.0, 32767.0, 9362.0, 0.0, 7.695868015289307, -1.682278037071228, -1.8455634117126465, 0.08898653835058212, 0.13327752218976133, -1.0153061594045312, -1.9450318319358246
466966, 0.8454809188842773, -1.887685775756836, 1.8593734502792358, -0.029785003513097763, 0.013971763662993908, 0.9982204437255859, -0.2296600341796875, 9362.0, 28835.0, 32767.0, 9362.0, 0.0, 7.695868015289307, -1.6821719408035278, -1.8454855680465698, 0.08901526778936386, 0.07647411776517639, -0.9599121331633853, -1.9676890856572042
466976, 0.8463801741600037, -1.8879843950271606, 1.8580152988433838, -0.029559794813394547, 0.0123552605509758, 1.000495195388794, -0.23239898681640625, 9362.0, 28835.0, 32767.0, 9362.0, 0.0, 7.695868015289307, -1.682178020477295, -1.8455597162246704, 0.0890401154756546, 0.15608719457418146, -0.959899186825055, -1.9662790724206727
466986, 0.8455930352210999, -1.8870326280593872, 1.85716712474823, -0.030798304826021194, 0.0140236746519804, 0.99885493516922, -0.23239898681640625, 9362.0, 28835.0, 32767.0, 9362.0, 0.0, 7.695868015289307, -1.682185411453247, -1.8455564975738525, 0.0890289768576622, 0.15325883697455359, -0.9623622891145658, -1.9792873537267817
466996, 0.8472836017608643, -1.885827660560608, 1.8563979864120483, -0.0300716795027256, 0.013535553589463234, 0.9985315799713135, -0.1886444091796875, 9362.0, 28835.0, 32767.0, 9362.0, 0.0, 7.695868015289307, -1.6821843385696411, -1.8454710245132446, 0.08899764716625214, 0.0759625789754663, -0.9616729568201379, -1.9690474341444464
467006, 0.8477169275283813, -1.8861148357391357, 1.854076862335205, -0.03054616041481495, 0.014971244148910046, 1.0012924671173096, -0.1886444091796875, 9362.0, 28835.0, 32767.0, 9362.0, 0.0, 7.695868015289307, -1.6821659803390503, -1.845560908317566, 0.08904509246349335, 0.15395939547118714, -0.9606459617094174, -1.9778478405342608
467016, 0.8476206660270691, -1.8869543075561523, 1.8536289930343628, -0.029912816360592842, 0.013585763052105904, 1.0006422996520996, -0.13396453857421875, 9362.0, 28835.0, 32767.0, 9362.0, 0.0, 7.695868015289307, -1.6821815967559814, -1.8455594778060913, 0.08908040821552277, 0.15312606928500339, -0.9630290052016903, -1.976830179163111
467026, 0.8473501205444336, -1.8865692615509033, 1.8523250818252563, -0.030093468725681305, 0.013076655566692352, 1.0010483264923096, -0.13396453857421875, 9362.0, 28835.0, 32767.0, 9362.0, 0.0, 7.695868015289307, -1.6822948455810547, -1.845571756362915, 0.0889841765165329, 0.13747307256244579, -1.0004338816201823, -1.9485824511679737
467036, 0.8479987978935242, -1.8861156702041626, 1.8521790504455566, -0.02940468117594719, 0.01271410658955574, 1.0020349025726318, -0.03827667236328125, 9362.0, 28835.0, 32767.0, 9362.0, 0.0, 7.695868015289307, -1.682271122932434, -1.8455597162246704, 0.08899902552366257, 0.132786178696107, -1.0090809062325263, -1.9553967501807077
467046, 0.8471804261207581, -1.885903000831604, 1.850649118423462, -0.027951452881097794, 0.014783622696995735, 1.0015777349472046, -0.03827667236328125, 9362.0, 28835.0, 32767.0, 9362.0, 0.0, 7.695868015289307, -1.6822783946990967, -1.8455570936203003, 0.08898881077766418, 0.13624891150169477, -1.000333962473718, -1.9502572801419098
467056, 0.8471089005470276, -1.885729432106018, 1.8495047092437744, -0.02650136500597, 0.013361083343625069, 0.9999183416366577, -0.0574188232421875, 9362.0, 28835.0, 32767.0, 9362.0, 0.0, 7.695868015289307, -1.6821850538253784, -1.8455710411071777, 0.08905293792486191, 0.15482760691419378, -0.9560525051038553, -1.9835214722256063
467066, 0.8463173508644104, -1.886665940284729, 1.8491610288619995, -0.02848583273589611, 0.013162407092750072, 1.0013446807861328, -0.0574188232421875, 9362.0, 28835.0, 32767.0, 9362.0, 0.0, 7.695868015289307, -1.682283639907837, -1.8454729318618774, 0.08896153420209885, 0.06626582413238023, -1.012865005326688, -1.943209793453479
467076, 0.8459980487823486, -1.8848400115966797, 1.847886085510254, -0.030206574127078056, 0.012324709445238113, 1.0015290975570679, -0.1093597412109375, 9362.0, 28835.0, 32767.0, 9362.0, 0.0, 7.695868015289307, -1.6822752952575684, -1.8455573320388794, 0.08898523449897766, 0.13514430402259045, -1.0054487349584917, -1.9432906996442256
467086, 0.8441712856292725, -1.8849772214889526, 1.8472604751586914, -0.029743488878011703, 0.01286997552961111, 1.0003769397735596, -0.1093597412109375, 9362.0, 28835.0, 32767.0, 9362.0, 0.0, 7.695868015289307, -1.6822813749313354, -1.8455616235733032, 0.0890270471572876, 0.1303011290838193, -1.0208031347037263, -1.9416625877250306
467096, 0.8445539474487305, -1.8845462799072266, 1.846907138824463, -0.030586745589971542, 0.012490980327129364, 1.0032012462615967, -0.13396453857421875, 9362.0, 28835.0, 32767.0, 9362.0, 0.0, 7.695868015289307, -1.681898832321167, -1.8455568552017212, 0.0890432745218277, 0.1627646672245229, -0.9190562169140151, -2.0081085960869727
467106, 0.843762993812561, -1.8861209154129028, 1.84641695022583, -0.030053405091166496, 0.013895906507968903, 1.0038542747497559, -0.13396453857421875, 9362.0, 28835.0, 32767.0, 9362.0, 0.0, 7.695868015289307, -1.682321310043335, -1.8456614017486572, 0.08872207999229431, 0.03932607119743335, -0.9735162827150248, -1.8294230815476715
467116, 0.8438888192176819, -1.8859803676605225, 1.8458812236785889, -0.03109755739569664, 0.013970756903290749, 1.0029630661010742, -0.1038970947265625, 9362.0, 28835.0, 32767.0, 9362.0, 0.0, 7.695868015289307, -1.682169795036316, -1.8454878330230713, 0.08898625522851944, 0.08823730035008277, -0.9714952741606737, -1.973017417057598
467126, 0.8427765369415283, -1.8855807781219482, 1.84524405002594, -0.030907606706023216, 0.012252416461706161, 1.0011959075927734, -0.1038970947265625, 9362.0, 28835.0, 32767.0, 9362.0, 0.0, 7.695868015289307, -1.682161808013916, -1.8454843759536743, 0.08899758756160736, 0.07837302777163818, -0.9692296484758742, -1.9716619951718155
467136, 0.8434866070747375, -1.8850395679473877, 1.8447070121765137, -0.031334009021520615, 0.012316649779677391, 1.0006136894226074, -0.17498016357421875, 9362.0, 28835.0, 32767.0, 9362.0, 0.0, 7.695868015289307, -1.6822781562805176, -1.8455456495285034, 0.0890330970287323, 0.13490059130012585, -1.0164828754227244, -1.9486624053317194
467146, 0.8435340523719788, -1.8845778703689575, 1.8427376747131348, -0.03061460703611374, 0.013459987938404083, 1.0016733407974243, -0.17498016357421875, 9362.0, 28835.0, 32767.0, 9362.0, 0.0, 7.695868015289307, -1.6821646690368652, -1.8455650806427002, 0.08902435749769211, 0.1549355487247837, -0.9618782972892461, -1.9660941092127762
467156, 0.8439512252807617, -1.8847707509994507, 1.8421489000320435, -0.03153746575117111, 0.01538684219121933, 1.0023969411849976, -0.15857696533203125, 9362.0, 28835.0, 32767.0, 9362.0, 0.0, 7.695868015289307, -1.6821624040603638, -1.8455537557601929, 0.08905649185180664, 0.15214311954490944, -0.9782592137760275, -1.9755082311761267
467166, 0.8453009128570557, -1.8849886655807495, 1.8430733680725098, -0.03156514838337898, 0.014438374899327755, 1.0011045932769775, -0.15857696533203125, 9362.0, 28835.0, 32767.0, 9362.0, 0.0, 7.695868015289307, -1.6822694540023804, -1.8455452919006348, 0.0890069305896759, 0.1438597928689485, -1.0125944915812966, -1.9418452307064369
467176, 0.8459393382072449, -1.8834766149520874, 1.8434303998947144, -0.030429396778345108, 0.01433748472481966, 1.0020381212234497, -0.166778564453125, 9362.0, 28835.0, 32767.0, 9362.0, 0.0, 7.695868015289307, -1.6821519136428833, -1.8455613851547241, 0.08907657861709595, 0.14959314474215307, -0.9813687278062844, -1.9701375136244699
467186, 0.8451582789421082, -1.8845044374465942, 1.8421021699905396, -0.028008803725242615, 0.013859199360013008, 1.0010035037994385, -0.166778564453125, 9362.0, 28835.0, 32767.0, 9362.0, 0.0, 7.695868015289307, -1.6821740865707397, -1.8455618619918823, 0.0890628844499588, 0.15086088949672458, -0.976505293836766, -1.9758776149101405
467196, 0.8455427885055542, -1.8844060897827148, 1.8419007062911987, -0.029324287548661232, 0.01336474809795618, 1.001308798789978, -0.24332427978515625, 9362.0, 28835.0, 32767.0, 9362.0, 0.0, 7.695868015289307, -1.6821691989898682, -1.845537543296814, 0.08902573585510254, 0.14793859603982942, -0.9560871081058337, -1.9712152213597596
467206, 0.845136821269989, -1.884825348854065, 1.8410696983337402, -0.030551977455615997, 0.014134758152067661, 1.0029571056365967, -0.24332427978515625, 9362.0, 28835.0, 32767.0, 9362.0, 0.0, 7.695868015289307, -1.68227219581604, -1.84548819065094, 0.08892326056957245, 0.06954698134896647, -1.0223026359103926, -1.9378857117803643
467216, 0.8454070687294006, -1.8851869106292725, 1.8400275707244873, -0.030589653179049492, 0.016194455325603485, 1.0028146505355835, -0.2105255126953125, 9362.0, 28835.0, 32767.0, 9362.0, 0.0, 7.695868015289307, -1.682167887687683, -1.8455487489700317, 0.08904138207435608, 0.15457353456885564, -0.9639970295164915, -1.9771040436451934
467226, 0.8457273840904236, -1.8844529390335083, 1.8407418727874756, -0.02953643538057804, 0.014936359599232674, 1.0002409219741821, -0.2105255126953125, 9362.0, 28835.0, 32767.0, 9362.0, 0.0, 7.695868015289307, -1.6821610927581787, -1.8454681634902954, 0.0889858826994896, 0.08266042421242317, -0.9724789404119747, -1.958206401544994
467236, 0.8465967774391174, -1.8841668367385864, 1.8406413793563843, -0.02928311564028263, 0.016746245324611664, 0.9989930987358093, -0.1640472412109375, 9362.0, 28835.0, 32767.0, 9362.0, 0.0, 7.695868015289307, -1.6821633577346802, -1.8455538749694824, 0.0890561118721962, 0.1562905246593975, -0.9690425846673634, -1.9721711968959268
467246, 0.8474001288414001, -1.883820652961731, 1.8403741121292114, -0.02959512546658516, 0.01428947877138853, 0.9997231960296631, -0.1640472412109375, 9362.0, 28835.0, 32767.0, 9362.0, 0.0, 7.695868015289307, -1.6821670532226562, -1.8454790115356445, 0.08900617063045502, 0.08412035434252269, -0.9638364963684865, -1.9670879620162076
467256, 0.8471270203590393, -1.8837336301803589, 1.8399893045425415, -0.030342575162649155, 0.013999355025589466, 1.0003654956817627, -0.13944244384765625, 9362.0, 28835.0, 32767.0, 9362.0, 0.0, 7.695868015289307, -1.68218195438385, -1.8454691171646118, 0.08897003531455994, 0.08701437339328325, -0.9690830182526327, -1.9792179881728618
467266, 0.8457210063934326, -1.882259726524353, 1.8402857780456543, -0.030072174966335297, 0.012492392212152481, 1.002842664718628, -0.13944244384765625, 9362.0, 28835.0, 32767.0, 9362.0, 0.0, 7.695868015289307, -1.6822813749313354, -1.845558762550354, 0.0889754593372345, 0.14563837896141127, -0.9991531064556796, -1.941343656465649
467276, 0.8456716537475586, -1.8824427127838135, 1.8391165733337402, -0.029944341629743576, 0.012273740954697132, 1.0012233257293701, -0.13123321533203125, 9362.0, 28835.0, 32767.0, 9362.0, 0.0, 7.695868015289307, -1.6821675300598145, -1.8455531597137451, 0.08905097842216492, 0.15834212464969374, -0.9637596708232365, -1.9793196203362615
467286, 0.8454846739768982, -1.8830209970474243, 1.8386337757110596, -0.03076583333313465, 0.011067882180213928, 0.9980521202087402, -0.13123321533203125, 9362.0, 28835.0, 32767.0, 9362.0, 0.0, 7.695868015289307, -1.6822725534439087, -1.84555184841156, 0.0889698714017868, 0.1420089609910027, -1.0010872778267697, -1.924088075467409
467296, 0.8451291918754578, -1.884154200553894, 1.8371549844741821, -0.03044002875685692, 0.012122767977416515, 0.9983502626419067, -0.17498016357421875, 9362.0, 28835.0, 32767.0, 9362.0, 0.0, 7.695868015289307, -1.6821765899658203, -1.8454774618148804, 0.08899985998868942, 0.08155698642038438, -0.9723204017015803, -1.9697571178467796
467306, 0.8441755175590515, -1.8859022855758667, 1.8361718654632568, -0.030636057257652283, 0.013693357817828655, 0.9987807273864746, -0.17498016357421875, 9362.0, 28835.0, 32767.0, 9362.0, 0.0, 7.695868015289307, -1.6821610927581787, -1.8454664945602417, 0.08901255577802658, 0.082199997036369, -0.9682530204655393, -1.9621179124495562
467316, 0.8443573713302612, -1.8850733041763306, 1.8356249332427979, -0.03087533637881279, 0.014185471460223198, 1.000538945198059, -0.259735107421875, 9362.0, 28835.0, 32767.0, 9362.0, 0.0, 7.695868015289307, -1.6822845935821533, -1.845537781715393, 0.08898650854825974, 0.13854698298971638, -1.0111534162059854, -1.9489448993740612
467326, 0.8437737822532654, -1.8837093114852905, 1.8362075090408325, -0.02970937266945839, 0.014164568856358528, 1.0021321773529053, -0.259735107421875, 9362.0, 28835.0, 32767.0, 9362.0, 0.0, 7.695868015289307, -1.6821646690368652, -1.8455530405044556, 0.0890297144651413, 0.1604517877521595, -0.9638548220518146, -1.9680055864623651
467336, 0.843982458114624, -1.8833626508712769, 1.8357619047164917, -0.029059436172246933, 0.013202417641878128, 1.002510666847229, -0.311676025390625, 9362.0, 28835.0, 32767.0, 9362.0, 0.0, 7.695868015289307, -1.6822937726974487, -1.8455578088760376, 0.08901054412126541, 0.1421069230485544, -0.9946682830405962, -1.9249127414614284
467346, 0.8440430164337158, -1.8825470209121704, 1.8344175815582275, -0.029676059260964394, 0.01268441416323185, 1.0018786191940308, -0.311676025390625, 9362.0, 28835.0, 32767.0, 9362.0, 0.0, 7.695868015289307, -1.6822810173034668, -1.8455309867858887, 0.08900154381990433, 0.13632366383196223, -1.0044666649517353, -1.951164085471031
467356, 0.8421612977981567, -1.8839123249053955, 1.8327367305755615, -0.03128422424197197, 0.01223674789071083, 1.0035024881362915, -0.34175872802734375, 9362.0, 28835.0, 32767.0, 9362.0, 0.0, 7.695868015289307, -1.6822803020477295, -1.8454623222351074, 0.08894120901823044, 0.06412805755423277, -1.002760892636502, -1.9280670988076856
467366, 0.8424850106239319, -1.8839762210845947, 1.831669569015503, -0.0316755510866642, 0.01223628968000412, 1.0007174015045166, -0.34175872802734375, 9362.0, 28835.0, 32767.0, 9362.0, 0.0, 7.695868015289307, -1.6822749376296997, -1.8455520868301392, 0.08900963515043259, 0.14242013902416176, -1.0054744407725593, -1.9346971772984227
467376, 0.8414904475212097, -1.8842514753341675, 1.830739140510559, -0.03267372399568558, 0.013392646797001362, 1.0013625621795654, -0.37456512451171875, 9362.0, 28835.0, 32767.0, 9362.0, 0.0, 7.695868015289307, -1.6821542978286743, -1.8455452919006348, 0.08903735131025314, 0.146802174356959, -0.9713879816366955, -1.9578722582983614
467386, 0.8420621752738953, -1.8835645914077759, 1.8312643766403198, -0.028768528252840042, 0.013383904471993446, 1.001458764076233, -0.37456512451171875, 9362.0, 28835.0, 32767.0, 9362.0, 0.0, 7.695868015289307, -1.6821770668029785, -1.845469355583191, 0.0890069454908371, 0.07930117947068986, -0.9566630580056597, -1.9564759964249359
467396, 0.8430825471878052, -1.8845653533935547, 1.8323748111724854, -0.028356991708278656, 0.013175949454307556, 1.0001505613327026, -0.37729644775390625, 9362.0, 28835.0, 32767.0, 9362.0, 0.0, 7.695868015289307, -1.6822737455368042, -1.8455417156219482, 0.08898428827524185, 0.13801834060621113, -0.9971150679838843, -1.9348285261517733
467406, 0.8423493504524231, -1.8846524953842163, 1.8310545682907104, -0.030600083991885185, 0.013023942708969116, 0.997793436050415, -0.37729644775390625, 9362.0, 28835.0, 32767.0, 9362.0, 0.0, 7.695868015289307, -1.6821542978286743, -1.8454675674438477, 0.08898638933897018, 0.08437380462179637, -0.9642626609183651, -1.9522939589840398
467416, 0.8422700762748718, -1.8830559253692627, 1.8308916091918945, -0.030096586793661118, 0.013511106371879578, 1.0009863376617432, -0.39096832275390625, 9362.0, 28835.0, 32767.0, 9362.0, 0.0, 7.695868015289307, -1.6822848320007324, -1.8454679250717163, 0.08893641084432602, 0.06647824377575387, -1.00231473878992, -1.927584158647136
467426, 0.8416324853897095, -1.8831199407577515, 1.8293217420578003, -0.030098512768745422, 0.012880632653832436, 1.0013201236724854, -0.39096832275390625, 9362.0, 28835.0, 32767.0, 9362.0, 0.0, 7.695868015289307, -1.6822744607925415, -1.8455629348754883, 0.08898095041513443, 0.14273901102180356, -1.007229692968707, -1.9382658600216984
467436, 0.8423973321914673, -1.8828476667404175, 1.8288320302963257, -0.030235709622502327, 0.014930369332432747, 0.9993650913238525, -0.431976318359375, 9362.0, 28835.0, 32767.0, 9362.0, 0.0, 7.695868015289307, -1.682267427444458, -1.8455371856689453, 0.08901698142290115, 0.135204510595468, -1.0080470141798514, -1.9308005799168895
467446, 0.8423668742179871, -1.8819224834442139, 1.8275967836380005, -0.03031674399971962, 0.01272125169634819, 0.9996515512466431, -0.431976318359375, 9362.0, 28835.0, 32767.0, 9362.0, 0.0, 7.695868015289307, -1.6822656393051147, -1.8454731702804565, 0.08895726501941681, 0.06645551979677741, -0.989354640504871, -1.9337783323660236
467456, 0.8429083228111267, -1.882055401802063, 1.8277497291564941, -0.028896572068333626, 0.011957941576838493, 0.9994359016418457, -0.399169921875, 9362.0, 28835.0, 32767.0, 9362.0, 0.0, 7.695868015289307, -1.6822705268859863, -1.8455365896224976, 0.08900097757577896, 0.14312676354212972, -0.9991276830297977, -1.9387295563517022
467466, 0.8448918461799622, -1.8815420866012573, 1.8268826007843018, -0.029179872944951057, 0.015500834211707115, 1.0001221895217896, -0.399169921875, 9362.0, 28835.0, 32767.0, 9362.0, 0.0, 7.695868015289307, -1.682274580001831, -1.8454608917236328, 0.08896655589342117, 0.07132998868908406, -1.0273957585811502, -1.943527456609383
467476, 0.8454728126525879, -1.8818855285644531, 1.8267978429794312, -0.030597399920225143, 0.016087329015135765, 1.0004875659942627, -0.42104339599609375, 9362.0, 28835.0, 32767.0, 9362.0, 0.0, 7.695868015289307, -1.6821892261505127, -1.845556616783142, 0.08905467391014099, 0.1562478194153291, -0.9565246847744504, -1.9763323587816344
467486, 0.8460036516189575, -1.8831297159194946, 1.8267197608947754, -0.03324878588318825, 0.013509039767086506, 1.0021003484725952, -0.42104339599609375, 9362.0, 28835.0, 32767.0, 9362.0, 0.0, 7.695868015289307, -1.6822829246520996, -1.8455603122711182, 0.08901646733283997, 0.14431591667095398, -1.0094549930875587, -1.9417872208030902
467496, 0.847728431224823, -1.8842962980270386, 1.826769232749939, -0.030889883637428284, 0.01435051579028368, 1.0002096891403198, -0.399169921875, 9362.0, 28835.0, 32767.0, 9362.0, 0.0, 7.695868015289307, -1.6821770668029785, -1.8455475568771362, 0.08903487026691437, 0.1551193119250405, -0.9676418597466636, -1.9799826046497975
467506, 0.8484541177749634, -1.8838081359863281, 1.8272511959075928, -0.030474377796053886, 0.014406539499759674, 1.0018489360809326, -0.399169921875, 9362.0, 28835.0, 32767.0, 9362.0, 0.0, 7.695868015289307, -1.6821767091751099, -1.8455531597137451, 0.08902838826179504, 0.15844945550953116, -0.9513407832943983, -1.9718054367370206
467516, 0.8484532237052917, -1.884186863899231, 1.8267643451690674, -0.030590835958719254, 0.013284733518958092, 1.00111985206604, -0.44565582275390625, 9362.0, 28835.0, 32767.0, 9362.0, 0.0, 7.695868015289307, -1.6822924613952637, -1.8454773426055908, 0.08893027901649475, 0.06787172685476962, -1.006127799070157, -1.9342303166921297
467526, 0.8474636673927307, -1.8839492797851562, 1.8261923789978027, -0.03127707168459892, 0.012787364423274994, 1.0003411769866943, -0.44565582275390625, 9362.0, 28835.0, 32767.0, 9362.0, 0.0, 7.695868015289307, -1.6821856498718262, -1.8454817533493042, 0.08901721239089966, 0.07808330580169345, -0.9605049393576337, -1.9649282396927823
467536, 0.8464140295982361, -1.883833408355713, 1.8252488374710083, -0.03212190419435501, 0.013425423763692379, 1.0012933015823364, -0.4620513916015625, 9362.0, 28835.0, 32767.0, 9362.0, 0.0, 7.695868015289307, -1.6821550130844116, -1.8455511331558228, 0.08905115723609924, 0.1459636766194809, -0.9801918655185489, -1.9698552081183534
467546, 0.8449969291687012, -1.884611964225769, 1.8247984647750854, -0.029659679159522057, 0.011253494769334793, 1.0012776851654053, -0.4620513916015625, 9362.0, 28835.0, 32767.0, 9362.0, 0.0, 7.695868015289307, -1.6818318367004395, -1.845534324645996, 0.08921266347169876, 0.0661166887603584, -0.9602333665412175, -1.9805349017985063
467556, 0.846296489238739, -1.8850913047790527, 1.8246734142303467, -0.030123211443424225, 0.011835051700472832, 1.0016188621520996, -0.39096832275390625, 9362.0, 28835.0, 32767.0, 9362.0, 0.0, 7.695868015289307, -1.6821601390838623, -1.8455531597137451, 0.0890384316444397, 0.15448486476271767, -0.9660692549911403, -1.9636827217026707
467566, 0.8449351787567139, -1.8858113288879395, 1.8237228393554688, -0.029066700488328934, 0.01279632281512022, 1.0019304752349854, -0.39096832275390625, 9362.0, 28835.0, 32767.0, 9362.0, 0.0, 7.695868015289307, -1.6821812391281128, -1.845559000968933, 0.08905081450939178, 0.1634437545622273, -0.9678028756208903, -1.9747340387802903
467576, 0.8461029529571533, -1.8866525888442993, 1.8227179050445557, -0.028394971042871475, 0.011759588494896889, 1.0012197494506836, -0.39096832275390625, 9362.0, 28835.0, 32767.0, 9362.0, 0.0, 7.695868015289307, -1.68215012550354, -1.8455500602722168, 0.08903937041759491, 0.15696646891226443, -0.9661227706284023, -1.9697833597390755
467586, 0.8463789820671082, -1.887326717376709, 1.8214142322540283, -0.030119366943836212, 0.013054100796580315, 1.001928448677063, -0.39096832275390625, 9362.0, 28835.0, 32767.0, 9362.0, 0.0, 7.695868015289307, -1.6818557977676392, -1.8456169366836548, 0.08925177156925201, 0.14475616374023548, -0.9485107949418818, -1.9825528553936567
467596, 0.8467450737953186, -1.887605905532837, 1.8207837343215942, -0.0302756205201149, 0.01367056556046009, 1.0017971992492676, -0.34449005126953125, 9362.0, 28835.0, 32767.0, 9362.0, 0.0, 7.695868015289307, -1.6822688579559326, -1.8454787731170654, 0.08893279731273651, 0.07584989672762811, -0.9988908325111652, -1.9330739670708839
467606, 0.8472986817359924, -1.8882741928100586, 1.8201078176498413, -0.031289711594581604, 0.014312258921563625, 1.0011250972747803, -0.34449005126953125, 9362.0, 28835.0, 32767.0, 9362.0, 0.0, 7.695868015289307, -1.6821801662445068, -1.8454837799072266, 0.0890035629272461, 0.09267982602027426, -0.9717554450748196, -1.9682428819717481
467616, 0.8469939231872559, -1.8884609937667847, 1.8198645114898682, -0.030764305964112282, 0.013293740339577198, 1.001556634902954, -0.431976318359375, 9362.0, 28835.0, 32767.0, 9362.0, 0.0, 7.695868015289307, -1.6822723150253296, -1.8455679416656494, 0.08899712562561035, 0.1405487572593655, -0.9936781495807452, -1.940661075533223
467626, 0.8469349145889282, -1.888657569885254, 1.81769859790802, -0.030626580119132996, 0.012694799341261387, 1.0002856254577637, -0.431976318359375, 9362.0, 28835.0, 32767.0, 9362.0, 0.0, 7.695868015289307, -1.6822636127471924, -1.845563292503357, 0.08898015320301056, 0.14804630628913892, -1.006590657524299, -1.9424777568365863
