timeTick, roll, pitch, yaw, accX, accY, accZ, baro, m1, m2, m3, m4, thrust, vbat, otX0, otY0, otZ0, otRoll0, otPitch0, otYaw0
367577, 1.3125841617584229, -1.741841435432434, -9.64260196685791, 0, 0, 0, 0, 0, 0, 0, 0, 0, 0, -2.3724167346954346, -1.5467709302902222, 0.1026194840669632, -0.22712872005904877, -2.463255564569579, -6.193767054926202
367587, 1.3130277395248413, -1.7423760890960693, -9.643789291381836, -0.02688317932188511, 0.023018311709165573, 1.0008642673492432, 0.14490509033203125, 9362.0, 28835.0, 32767.0, 9362.0, 0.0, 7.9537200927734375, -2.372436285018921, -1.5467673540115356, 0.10260513424873352, -0.22232453399564198, -2.429032788987712, -6.203818552487576
367597, 1.3124146461486816, -1.741950273513794, -9.643568992614746, -0.026822393760085106, 0.020998641848564148, 0.9999947547912598, 0.1831817626953125, 9362.0, 28835.0, 32767.0, 9362.0, 0.0, 7.9537200927734375, -2.372420072555542, -1.5467718839645386, 0.1026594415307045, -0.23442073088459656, -2.4868345027440455, -6.1944491891149465
367607, 1.3118364810943604, -1.7414606809616089, -9.6431884765625, -0.028577137738466263, 0.01896653324365616, 1.0030434131622314, 0.1831817626953125, 9362.0, 28835.0, 32767.0, 9362.0, 0.0, 7.9537200927734375, -2.372415781021118, -1.5467865467071533, 0.10259906947612762, -0.2223979293172055, -2.480905894175663, -6.205008569208304
367617, 1.3114873170852661, -1.7417622804641724, -9.6444091796875, -0.03029136173427105, 0.02243204601109028, 1.0008864402770996, 0.10662841796875, 9362.0, 28835.0, 32767.0, 9362.0, 0.0, 7.9537200927734375, -2.3724217414855957, -1.54678475856781, 0.10260041803121567, -0.2418987129405933, -2.4701621124540907, -6.20268390394816
367627, 1.3117954730987549, -1.7393484115600586, -9.644989013671875, -0.027309898287057877, 0.024792315438389778, 1.0015099048614502, 0.10662841796875, 9362.0, 28835.0, 32767.0, 9362.0, 0.0, 7.9537200927734375, -2.3724236488342285, -1.5467761754989624, 0.10260026901960373, -0.23808135115452986, -2.4603918483190057, -6.21088170524414
367637, 1.3122655153274536, -1.738174319267273, -9.646905899047852, -0.025461774319410324, 0.022680336609482765, 1.0000805854797363, 0.0956878662109375, 9362.0, 28835.0, 32767.0, 9362.0, 0.0, 7.9537200927734375, -2.373119592666626, -1.5467100143432617, 0.10138517618179321, -0.034405844606506246, -1.5525937514733243, -6.231196802405469
367647, 1.3102061748504639, -1.7383239269256592, -9.646699905395508, -0.025112347677350044, 0.023656444624066353, 0.9998146891593933, 0.0956878662109375, 9362.0, 28835.0, 32767.0, 9362.0, 0.0, 7.9537200927734375, -2.372443437576294, -1.5467936992645264, 0.10253579169511795, -0.20531902539583446, -2.437640442794475, -6.204860869984692
367657, 1.309690237045288, -1.737320065498352, -9.648104667663574, -0.027772126719355583, 0.022821955382823944, 1.001105546951294, 0.1230316162109375, 9362.0, 28835.0, 32767.0, 9362.0, 0.0, 7.9537200927734375, -2.3731162548065186, -1.5467197895050049, 0.1013786792755127, -0.04088265100956029, -1.5679586047010616, -6.231310258802913
367667, 1.3088243007659912, -1.7372678518295288, -9.649017333984375, -0.027906468138098717, 0.02194051444530487, 1.000389575958252, 0.1230316162109375, 9362.0, 28835.0, 32767.0, 9362.0, 0.0, 7.9537200927734375, -2.3724231719970703, -1.546792984008789, 0.10259266197681427, -0.21843162028587113, -2.4772400393426324, -6.194524212326663
367677, 1.3093372583389282, -1.7369234561920166, -9.649697303771973, -0.025651607662439346, 0.02144043520092964, 1.001569151878357, 0.16403961181640625, 9362.0, 28835.0, 32767.0, 9362.0, 0.0, 7.9537200927734375, -2.3724091053009033, -1.5467759370803833, 0.10263600945472717, -0.2489616094969932, -2.490213472383374, -6.196409236759106
367687, 1.3100405931472778, -1.7352930307388306, -9.651333808898926, -0.024766389280557632, 0.02128315530717373, 1.0001393556594849, 0.16403961181640625, 9362.0, 28835.0, 32767.0, 9362.0, 0.0, 7.9537200927734375, -2.372408390045166, -1.5467873811721802, 0.10268894582986832, -0.25551516614654113, -2.510193836511462, -6.191398869877549
367697, 1.3100805282592773, -1.736240267753601, -9.65161418914795, -0.02705550193786621, 0.020689571276307106, 0.9987847805023193, 0.1831817626953125, 9362.0, 28835.0, 32767.0, 9362.0, 0.0, 7.9537200927734375, -2.3724493980407715, -1.546791434288025, 0.10255375504493713, -0.210527868530327, -2.4514017501298326, -6.199943601375865
367707, 1.3105171918869019, -1.7374852895736694, -9.651552200317383, -0.02800147980451584, 0.022741561755537987, 0.9998052716255188, 0.1831817626953125, 9362.0, 28835.0, 32767.0, 9362.0, 0.0, 7.9537200927734375, -2.372432231903076, -1.5467449426651, 0.10263056308031082, -0.26402974196182855, -2.4793884109151634, -6.21492421283844
367717, 1.3109488487243652, -1.7382135391235352, -9.651399612426758, -0.0283186212182045, 0.0225211288779974, 1.002012014389038, 0.21051788330078125, 9362.0, 28835.0, 32767.0, 9362.0, 0.0, 7.9537200927734375, -2.3731157779693604, -1.546717882156372, 0.10140694677829742, -0.030011543872314375, -1.569314689339535, -6.2292006016191825
367727, 1.3113185167312622, -1.738132119178772, -9.652528762817383, -0.02681216038763523, 0.021451756358146667, 1.0021471977233887, 0.21051788330078125, 9362.0, 28835.0, 32767.0, 9362.0, 0.0, 7.9537200927734375, -2.3724613189697266, -1.5467607975006104, 0.10260704159736633, -0.2426303907458104, -2.429665644503274, -6.207835886331212
367737, 1.3109925985336304, -1.7389932870864868, -9.652196884155273, -0.027753621339797974, 0.02170165814459324, 1.0002143383026123, 0.22692108154296875, 9362.0, 28835.0, 32767.0, 9362.0, 0.0, 7.9537200927734375, -2.372438907623291, -1.5467840433120728, 0.10256924480199814, -0.2167326304439407, -2.443360080060671, -6.214210150815911
367747, 1.311327576637268, -1.7375006675720215, -9.653063774108887, -0.0283803828060627, 0.024245040491223335, 1.0010697841644287, 0.22692108154296875, 9362.0, 28835.0, 32767.0, 9362.0, 0.0, 7.9537200927734375, -2.3724541664123535, -1.5467710494995117, 0.10262885689735413, -0.23626868810379625, -2.455829983502042, -6.213696711048615
367757, 1.312379240989685, -1.7382818460464478, -9.653984069824219, -0.027628716081380844, 0.021900299936532974, 1.0014020204544067, 0.17771148681640625, 9362.0, 28835.0, 32767.0, 9362.0, 0.0, 7.9537200927734375, -2.372469425201416, -1.5467759370803833, 0.1025780588388443, -0.2259488335867025, -2.421234329829929, -6.20535522041337
367767, 1.3107924461364746, -1.7396787405014038, -9.654205322265625, -0.0286500733345747, 0.02195758745074272, 1.001236081123352, 0.17771148681640625, 9362.0, 28835.0, 32767.0, 9362.0, 0.0, 7.9537200927734375, -2.3731179237365723, -1.54671049118042, 0.10140484571456909, -0.04887746208040269, -1.565757301392125, -6.234377342357389
367777, 1.3100639581680298, -1.7404847145080566, -9.654813766479492, -0.03082963638007641, 0.02145606465637684, 1.0028176307678223, 0.15036773681640625, 9362.0, 28835.0, 32767.0, 9362.0, 0.0, 7.9537200927734375, -2.3724136352539062, -1.5468101501464844, 0.1026422530412674, -0.218767729246808, -2.499987237326934, -6.200079497052335
367787, 1.3092707395553589, -1.7411985397338867, -9.65645980834961, -0.0300260242074728, 0.02091633528470993, 1.0022562742233276, 0.15036773681640625, 9362.0, 28835.0, 32767.0, 9362.0, 0.0, 7.9537200927734375, -2.3724334239959717, -1.546765685081482, 0.10262502729892731, -0.23927368678557195, -2.4388291686497894, -6.21045696135657
367797, 1.3082141876220703, -1.7400932312011719, -9.657258987426758, -0.026735812425613403, 0.022040247917175293, 1.0016272068023682, 0.1722412109375, 9362.0, 28835.0, 32767.0, 9362.0, 0.0, 7.9537200927734375, -2.372410774230957, -1.5468019247055054, 0.10261795669794083, -0.2097627857623034, -2.476170590188161, -6.198949682957333
367807, 1.3080053329467773, -1.7387032508850098, -9.656649589538574, -0.02808482199907303, 0.022053157910704613, 1.0017540454864502, 0.1722412109375, 9362.0, 28835.0, 32767.0, 9362.0, 0.0, 7.9537200927734375, -2.372438907623291, -1.5467603206634521, 0.10260511189699173, -0.24611400540210923, -2.440861669958764, -6.2060755203647435
367817, 1.3084391355514526, -1.7376834154129028, -9.657463073730469, -0.02850469946861267, 0.022573798894882202, 1.000035047531128, 0.14490509033203125, 9362.0, 28835.0, 32767.0, 9362.0, 0.0, 7.9537200927734375, -2.3724327087402344, -1.5467673540115356, 0.10264250636100769, -0.24983316508470543, -2.4653414885903544, -6.217102416749304
367827, 1.3085707426071167, -1.7378841638565063, -9.658894538879395, -0.028472576290369034, 0.02269018068909645, 1.0009340047836304, 0.14490509033203125, 9362.0, 28835.0, 32767.0, 9362.0, 0.0, 7.9537200927734375, -2.372450590133667, -1.5467841625213623, 0.10261408239603043, -0.2426311679872784, -2.4711217945863666, -6.211128315935586
367837, 1.3076715469360352, -1.7385144233703613, -9.660868644714355, -0.029381321743130684, 0.022337917238473892, 1.0004700422286987, 0.1230316162109375, 9362.0, 28835.0, 32767.0, 9362.0, 0.0, 7.9537200927734375, -2.373100996017456, -1.5466948747634888, 0.10141751170158386, -0.06502681454334926, -1.593582900349702, -6.242031064981538
367847, 1.3092262744903564, -1.738370418548584, -9.663455963134766, -0.02947080135345459, 0.02120159938931465, 1.001267671585083, 0.1230316162109375, 9362.0, 28835.0, 32767.0, 9362.0, 0.0, 7.9537200927734375, -2.372429132461548, -1.5467877388000488, 0.10261311382055283, -0.23428863248818674, -2.4767586160582766, -6.2019167017000205
367857, 1.3102591037750244, -1.7374180555343628, -9.664322853088379, -0.02647722326219082, 0.02326507493853569, 1.0016424655914307, 0.16403961181640625, 9362.0, 28835.0, 32767.0, 9362.0, 0.0, 7.9537200927734375, -2.3724277019500732, -1.5467668771743774, 0.10262022167444229, -0.22997859017683586, -2.4704959417477994, -6.199779065695386
367867, 1.309325098991394, -1.7379261255264282, -9.6678466796875, -0.027578085660934448, 0.022884301841259003, 1.0006401538848877, 0.16403961181640625, 9362.0, 28835.0, 32767.0, 9362.0, 0.0, 7.9537200927734375, -2.3724379539489746, -1.5467838048934937, 0.102625273168087, -0.22334034332899613, -2.4603704906614325, -6.205304196811491
367877, 1.310016393661499, -1.7370853424072266, -9.669072151184082, -0.02845817245543003, 0.022866496816277504, 1.0015532970428467, 0.13669586181640625, 9362.0, 28835.0, 32767.0, 9362.0, 0.0, 7.9537200927734375, -2.372441530227661, -1.5467499494552612, 0.10258631408214569, -0.2555761922963586, -2.4525346032472726, -6.205097407973058
367887, 1.3097331523895264, -1.737987756729126, -9.671125411987305, -0.027596941217780113, 0.02259005233645439, 1.0014145374298096, 0.13669586181640625, 9362.0, 28835.0, 32767.0, 9362.0, 0.0, 7.9537200927734375, -2.3724400997161865, -1.5467681884765625, 0.1026114672422409, -0.24453248992763946, -2.4589651435529447, -6.205135787065541
367897, 1.3096191883087158, -1.736825942993164, -9.671345710754395, -0.027577940374612808, 0.0216240044683218, 1.001656174659729, 0.15309906005859375, 9362.0, 28835.0, 32767.0, 9362.0, 0.0, 7.9537200927734375, -2.372418165206909, -1.5467703342437744, 0.10260061919689178, -0.23706417801733137, -2.4767769096838776, -6.208749579817779
367907, 1.311071515083313, -1.7368425130844116, -9.673259735107422, -0.02880695089697838, 0.022634945809841156, 1.0032010078430176, 0.15309906005859375, 9362.0, 28835.0, 32767.0, 9362.0, 0.0, 7.9537200927734375, -2.373124361038208, -1.5466963052749634, 0.10140128433704376, -0.046122120551443116, -1.5555379063350756, -6.24341799820976
367917, 1.3113704919815063, -1.7348275184631348, -9.672922134399414, -0.029074348509311676, 0.022391755133867264, 1.001969337463379, 0.1859130859375, 9362.0, 28835.0, 32767.0, 9362.0, 0.0, 7.9537200927734375, -2.372427225112915, -1.5467768907546997, 0.1026126891374588, -0.251070884895345, -2.4856180339287732, -6.1914179301238725
367927, 1.310649037361145, -1.734938383102417, -9.674345016479492, -0.027906998991966248, 0.021550288423895836, 1.0026154518127441, 0.1859130859375, 9362.0, 28835.0, 32767.0, 9362.0, 0.0, 7.9537200927734375, -2.372431993484497, -1.546778678894043, 0.1026158258318901, -0.22567228359153899, -2.4602207752472793, -6.199463153870971
367937, 1.3106684684753418, -1.734014630317688, -9.673894882202148, -0.02917962707579136, 0.02315300516784191, 1.003179907798767, 0.1695098876953125, 9362.0, 28835.0, 32767.0, 9362.0, 0.0, 7.9537200927734375, -2.3731436729431152, -1.546708583831787, 0.10139310359954834, -0.04293980013824886, -1.552991599337986, -6.233751028768114
367947, 1.311187744140625, -1.7347099781036377, -9.674222946166992, -0.030323851853609085, 0.0244072824716568, 1.0018815994262695, 0.1695098876953125, 9362.0, 28835.0, 32767.0, 9362.0, 0.0, 7.9537200927734375, -2.373145341873169, -1.5467067956924438, 0.10141908377408981, -0.049642430941821046, -1.5573619393249487, -6.235795531860368
367957, 1.3117626905441284, -1.7355879545211792, -9.674294471740723, -0.029337052255868912, 0.02419954538345337, 1.0023610591888428, 0.17771148681640625, 9362.0, 28835.0, 32767.0, 9362.0, 0.0, 7.9537200927734375, -2.372434139251709, -1.5467987060546875, 0.10259561240673065, -0.20982042482426388, -2.4656046433129575, -6.209109104487402
367967, 1.3129968643188477, -1.7373285293579102, -9.673175811767578, -0.02776680327951908, 0.022807851433753967, 1.0017112493515015, 0.17771148681640625, 9362.0, 28835.0, 32767.0, 9362.0, 0.0, 7.9537200927734375, -2.372429609298706, -1.5467692613601685, 0.10260407626628876, -0.24953166680094938, -2.4376021459339086, -6.224871661759021
367977, 1.3136162757873535, -1.7364941835403442, -9.674656867980957, -0.028624476864933968, 0.02292502485215664, 1.0006808042526245, 0.232391357421875, 9362.0, 28835.0, 32767.0, 9362.0, 0.0, 7.9537200927734375, -2.3724422454833984, -1.546790361404419, 0.10261327773332596, -0.2251493296964695, -2.458142679252319, -6.211198557385986
367987, 1.3133348226547241, -1.7359280586242676, -9.675827980041504, -0.027801088988780975, 0.021826017647981644, 1.0005433559417725, 0.232391357421875, 9362.0, 28835.0, 32767.0, 9362.0, 0.0, 7.9537200927734375, -2.3724231719970703, -1.5467844009399414, 0.10258349776268005, -0.23387788561624817, -2.4653194206963462, -6.203163459107684
367997, 1.3138082027435303, -1.7343121767044067, -9.676519393920898, -0.02691062167286873, 0.02096283808350563, 0.9995028972625732, 0.22418975830078125, 9362.0, 28835.0, 32767.0, 9362.0, 0.0, 7.9537200927734375, -2.3724305629730225, -1.5467991828918457, 0.10259531438350677, -0.22321696534342836, -2.470068857673823, -6.214991360318902
368007, 1.3149546384811401, -1.7346137762069702, -9.676398277282715, -0.02663162723183632, 0.022990483790636063, 0.9993564486503601, 0.22418975830078125, 9362.0, 28835.0, 32767.0, 9362.0, 0.0, 7.9537200927734375, -2.3724288940429688, -1.5467714071273804, 0.10259811580181122, -0.2500269630158515, -2.465896358444951, -6.211194968823562
368017, 1.3138607740402222, -1.7354329824447632, -9.6766939163208, -0.02816190756857395, 0.022377727553248405, 1.0005366802215576, 0.205047607421875, 9362.0, 28835.0, 32767.0, 9362.0, 0.0, 7.9537200927734375, -2.372426748275757, -1.5467603206634521, 0.10258069634437561, -0.24867122772765332, -2.4454331986598845, -6.20585689676946
368027, 1.3153752088546753, -1.7338379621505737, -9.675472259521484, -0.02671896293759346, 0.0213682372123003, 1.001539945602417, 0.205047607421875, 9362.0, 28835.0, 32767.0, 9362.0, 0.0, 7.9537200927734375, -2.37241792678833, -1.546783685684204, 0.10261300206184387, -0.2400515332710853, -2.468232280476883, -6.192230317262265
368037, 1.314744234085083, -1.7342218160629272, -9.6766357421875, -0.027491483837366104, 0.019994335249066353, 0.9970154166221619, 0.2159881591796875, 9362.0, 28835.0, 32767.0, 9362.0, 0.0, 7.9537200927734375, -2.373082399368286, -1.546706199645996, 0.10146022588014603, -0.0703156686746003, -1.6011244565686127, -6.229431987201996
368047, 1.3149471282958984, -1.7367409467697144, -9.677497863769531, -0.028127042576670647, 0.01884123869240284, 0.9981351494789124, 0.2159881591796875, 9362.0, 28835.0, 32767.0, 9362.0, 0.0, 7.9537200927734375, -2.3724400997161865, -1.5467902421951294, 0.1025753766298294, -0.2267811208620582, -2.434056068963116, -6.20683050421172
368057, 1.314000129699707, -1.7367881536483765, -9.678509712219238, -0.02868599444627762, 0.019650869071483612, 1.00266695022583, 0.218719482421875, 9362.0, 28835.0, 32767.0, 9362.0, 0.0, 7.9537200927734375, -2.3724746704101562, -1.5467554330825806, 0.10256853699684143, -0.25182172615019927, -2.427984201723177, -6.206072998405685
368067, 1.3139197826385498, -1.7378690242767334, -9.679403305053711, -0.028988923877477646, 0.021780826151371002, 1.0027226209640503, 0.218719482421875, 9362.0, 28835.0, 32767.0, 9362.0, 0.0, 7.9537200927734375, -2.373128890991211, -1.5466989278793335, 0.10138286650180817, -0.047328816054348445, -1.5445617327584387, -6.239471794595151
368077, 1.314491629600525, -1.7379493713378906, -9.681337356567383, -0.028026679530739784, 0.021905288100242615, 1.0014514923095703, 0.194122314453125, 9362.0, 28835.0, 32767.0, 9362.0, 0.0, 7.9537200927734375, -2.3724286556243896, -1.5467702150344849, 0.10263659060001373, -0.24753851604695384, -2.459505528747485, -6.203023997828171
368087, 1.3137787580490112, -1.7391844987869263, -9.68232536315918, -0.02844904363155365, 0.021958686411380768, 1.0008959770202637, 0.194122314453125, 9362.0, 28835.0, 32767.0, 9362.0, 0.0, 7.9537200927734375, -2.374197483062744, -1.546999216079712, 0.10074097663164139, 1.0737285455834633, -0.04738061984605224, -5.914461932115818
368097, 1.3153022527694702, -1.740573525428772, -9.682884216308594, -0.029281042516231537, 0.020035535097122192, 0.9983804225921631, 0.24880218505859375, 9362.0, 28835.0, 32767.0, 9362.0, 0.0, 7.9537200927734375, -2.372421979904175, -1.546769380569458, 0.10260407626628876, -0.24442350200581253, -2.4636172712552593, -6.197149505894454
368107, 1.3134468793869019, -1.7382467985153198, -9.684712409973145, -0.028856759890913963, 0.020166432484984398, 0.9992236495018005, 0.24880218505859375, 9362.0, 28835.0, 32767.0, 9362.0, 0.0, 7.9537200927734375, -2.3724029064178467, -1.5467846393585205, 0.10260836035013199, -0.2516501042770948, -2.4835899461545807, -6.187016717973768
368117, 1.3135452270507812, -1.7371718883514404, -9.683710098266602, -0.027368944138288498, 0.019758541136980057, 1.001668930053711, 0.23513031005859375, 9362.0, 28835.0, 32767.0, 9362.0, 0.0, 7.9537200927734375, -2.3724184036254883, -1.54677414894104, 0.10258547961711884, -0.2320682257534605, -2.4633506902177658, -6.1904063921797015
368127, 1.313240885734558, -1.7376735210418701, -9.68464183807373, -0.02726629376411438, 0.02080709859728813, 0.9996302127838135, 0.23513031005859375, 9362.0, 28835.0, 32767.0, 9362.0, 0.0, 7.9537200927734375, -2.3724677562713623, -1.5467703342437744, 0.10260200500488281, -0.2392752404951186, -2.434038188111117, -6.21927791775966
368137, 1.3147069215774536, -1.7366008758544922, -9.685590744018555, -0.02696346491575241, 0.02322452887892723, 1.000910997390747, 0.24605560302734375, 9362.0, 28835.0, 32767.0, 9362.0, 0.0, 7.9537200927734375, -2.372425079345703, -1.5467731952667236, 0.10263575613498688, -0.2597028846075954, -2.500653308519702, -6.206148082693046
368147, 1.3152878284454346, -1.735032558441162, -9.687243461608887, -0.02590368129312992, 0.023906921967864037, 1.000878095626831, 0.24605560302734375, 9362.0, 28835.0, 32767.0, 9362.0, 0.0, 7.9537200927734375, -2.372424840927124, -1.546776294708252, 0.10261239111423492, -0.2454770619959199, -2.466762692338847, -6.204184213567535
368157, 1.3152612447738647, -1.7338961362838745, -9.687783241271973, -0.026870939880609512, 0.022736363112926483, 1.0014561414718628, 0.17771148681640625, 9362.0, 28835.0, 32767.0, 9362.0, 0.0, 7.9537200927734375, -2.3731443881988525, -1.5467088222503662, 0.10137851536273956, -0.036223654752840645, -1.514695074075462, -6.2303714057801045
368167, 1.314939022064209, -1.7334637641906738, -9.687477111816406, -0.026853248476982117, 0.02208585850894451, 1.0015177726745605, 0.17771148681640625, 9362.0, 28835.0, 32767.0, 9362.0, 0.0, 7.9537200927734375, -2.3731319904327393, -1.546704649925232, 0.10140665620565414, -0.043627552210675796, -1.5810957821203147, -6.232744798737762
368177, 1.31539785861969, -1.7350374460220337, -9.688841819763184, -0.026347070932388306, 0.021633481606841087, 1.0010684728622437, 0.22692108154296875, 9362.0, 28835.0, 32767.0, 9362.0, 0.0, 7.9537200927734375, -2.3731212615966797, -1.5467042922973633, 0.10140006244182587, -0.05291172514432994, -1.554534941605425, -6.243246681205674
368187, 1.3147491216659546, -1.735325813293457, -9.689657211303711, -0.027678949758410454, 0.021120335906744003, 0.9995178580284119, 0.22692108154296875, 9362.0, 28835.0, 32767.0, 9362.0, 0.0, 7.9537200927734375, -2.3724400997161865, -1.546791911125183, 0.10258154571056366, -0.2260284326407232, -2.4402973578318097, -6.211906274996065
368197, 1.314188003540039, -1.7370715141296387, -9.69128131866455, -0.0272337906062603, 0.020748408511281013, 1.0001509189605713, 0.2159881591796875, 9362.0, 28835.0, 32767.0, 9362.0, 0.0, 7.9537200927734375, -2.3724265098571777, -1.546758770942688, 0.10259585082530975, -0.2552886113075472, -2.469510885872353, -6.218301227193859
368207, 1.3125593662261963, -1.736726999282837, -9.693114280700684, -0.028092890977859497, 0.0192986149340868, 1.0013155937194824, 0.2159881591796875, 9362.0, 28835.0, 32767.0, 9362.0, 0.0, 7.9537200927734375, -2.3724491596221924, -1.5467900037765503, 0.10261900722980499, -0.22911256296478466, -2.4535120782769013, -6.2205106972476
368217, 1.3111703395843506, -1.7372262477874756, -9.694835662841797, -0.02865450829267502, 0.019816942512989044, 1.0010085105895996, 0.1695098876953125, 9362.0, 28835.0, 32767.0, 9362.0, 0.0, 7.9537200927734375, -2.3724570274353027, -1.546778917312622, 0.10258615761995316, -0.23306971777181648, -2.462941699808937, -6.210305746344275
368227, 1.3112883567810059, -1.7348005771636963, -9.695480346679688, -0.02923625148832798, 0.022047989070415497, 1.0017435550689697, 0.1695098876953125, 9362.0, 28835.0, 32767.0, 9362.0, 0.0, 7.9537200927734375, -2.3731415271759033, -1.5467116832733154, 0.10139148682355881, -0.035714375519889645, -1.5613172429795839, -6.234998007895011
368237, 1.3119162321090698, -1.733601689338684, -9.696105003356934, -0.028400423005223274, 0.023166710510849953, 1.001268982887268, 0.1831817626953125, 9362.0, 28835.0, 32767.0, 9362.0, 0.0, 7.9537200927734375, -2.372471332550049, -1.5467748641967773, 0.1026129275560379, -0.23536086095514386, -2.4199613904686714, -6.225608085512929
368247, 1.3115209341049194, -1.7345858812332153, -9.696499824523926, -0.027976058423519135, 0.02186385914683342, 1.0011324882507324, 0.1831817626953125, 9362.0, 28835.0, 32767.0, 9362.0, 0.0, 7.9537200927734375, -2.372446060180664, -1.5467435121536255, 0.10262873768806458, -0.26354340079618943, -2.46285718326709, -6.206748028608229
368257, 1.3112311363220215, -1.7328088283538818, -9.696823120117188, -0.027799859642982483, 0.02157103270292282, 1.0020878314971924, 0.15309906005859375, 9362.0, 28835.0, 32767.0, 9362.0, 0.0, 7.9537200927734375, -2.372448682785034, -1.5467665195465088, 0.10260512679815292, -0.21312623245337523, -2.4578375230882727, -6.203229193199301
368267, 1.31049382686615, -1.7333426475524902, -9.697205543518066, -0.027480239048600197, 0.02094127982854843, 1.0015218257904053, 0.15309906005859375, 9362.0, 28835.0, 32767.0, 9362.0, 0.0, 7.9537200927734375, -2.3724608421325684, -1.5467472076416016, 0.1025964617729187, -0.25095988652323753, -2.426576276423617, -6.207509512882125
368277, 1.3105838298797607, -1.7328017950057983, -9.697546005249023, -0.028042159974575043, 0.022163238376379013, 1.0004476308822632, 0.14217376708984375, 9362.0, 28835.0, 32767.0, 9362.0, 0.0, 7.9537200927734375, -2.372462749481201, -1.5467370748519897, 0.10263030230998993, -0.24691000567384216, -2.4180579774451303, -6.1975705138644095
368287, 1.3098273277282715, -1.732802391052246, -9.697900772094727, -0.027480026707053185, 0.021955430507659912, 1.0001301765441895, 0.14217376708984375, 9362.0, 28835.0, 32767.0, 9362.0, 0.0, 7.9537200927734375, -2.3731179237365723, -1.546669363975525, 0.10145474970340729, -0.05976201407570822, -1.5619273502930184, -6.225363317466866
368297, 1.310278058052063, -1.7344486713409424, -9.699875831604004, -0.027085356414318085, 0.02239142172038555, 1.0004322528839111, 0.17771148681640625, 9362.0, 28835.0, 32767.0, 9362.0, 0.0, 7.9537200927734375, -2.3724453449249268, -1.5467561483383179, 0.10264746844768524, -0.24318246566079885, -2.4430459797452215, -6.195885838663027
368307, 1.3100882768630981, -1.7341967821121216, -9.701272964477539, -0.028398968279361725, 0.021216686815023422, 1.0023164749145508, 0.17771148681640625, 9362.0, 28835.0, 32767.0, 9362.0, 0.0, 7.9537200927734375, -2.3724522590637207, -1.5467445850372314, 0.10266263037919998, -0.24342467388714584, -2.4334812731347597, -6.186521898713163
368317, 1.3084502220153809, -1.7347133159637451, -9.702274322509766, -0.027258623391389847, 0.0217009074985981, 1.0010640621185303, 0.1722412109375, 9362.0, 28835.0, 32767.0, 9362.0, 0.0, 7.9537200927734375, -2.372441053390503, -1.5467671155929565, 0.102668397128582, -0.22479936751018226, -2.465653824685461, -6.186100543157536
368327, 1.3093844652175903, -1.7342250347137451, -9.702970504760742, -0.02922707237303257, 0.02310718037188053, 1.0017833709716797, 0.1722412109375, 9362.0, 28835.0, 32767.0, 9362.0, 0.0, 7.9537200927734375, -2.372476577758789, -1.546769618988037, 0.10260964930057526, -0.21520734229981864, -2.3975759989141636, -6.1991165662357055
368337, 1.309396743774414, -1.734146237373352, -9.703546524047852, -0.02954952046275139, 0.024538109079003334, 1.0016896724700928, 0.12029266357421875, 9362.0, 28835.0, 32767.0, 9362.0, 0.0, 7.9537200927734375, -2.372434377670288, -1.5467545986175537, 0.1026354730129242, -0.2280277407574975, -2.4406308124763143, -6.191752534947506
368347, 1.3098349571228027, -1.7334433794021606, -9.703361511230469, -0.026992149651050568, 0.021099334582686424, 1.0000860691070557, 0.12029266357421875, 9362.0, 28835.0, 32767.0, 9362.0, 0.0, 7.9537200927734375, -2.372439384460449, -1.5467616319656372, 0.10263518989086151, -0.2388748063915934, -2.4568987009194814, -6.178183166680084
368357, 1.3091286420822144, -1.7353726625442505, -9.7039794921875, -0.02654174342751503, 0.023874303326010704, 1.0012078285217285, 0.1722412109375, 9362.0, 28835.0, 32767.0, 9362.0, 0.0, 7.9537200927734375, -2.372438669204712, -1.5467679500579834, 0.10264411568641663, -0.23231893915787258, -2.4648098983620343, -6.20120203888442
368367, 1.3097983598709106, -1.7349591255187988, -9.704314231872559, -0.027337662875652313, 0.02187381312251091, 1.00138258934021, 0.1722412109375, 9362.0, 28835.0, 32767.0, 9362.0, 0.0, 7.9537200927734375, -2.3724684715270996, -1.5467437505722046, 0.10260605812072754, -0.22151681721010358, -2.398100239407512, -6.199772990739777
368377, 1.3096541166305542, -1.736777663230896, -9.70532512664795, -0.027124151587486267, 0.022611267864704132, 1.0000746250152588, 0.1230316162109375, 9362.0, 28835.0, 32767.0, 9362.0, 0.0, 7.9537200927734375, -2.3724586963653564, -1.5467079877853394, 0.10256999731063843, -0.2676013315085955, -2.4098411629298937, -6.207987161965995
368387, 1.3094964027404785, -1.7366626262664795, -9.704466819763184, -0.027817940339446068, 0.02217238023877144, 1.001676321029663, 0.1230316162109375, 9362.0, 28835.0, 32767.0, 9362.0, 0.0, 7.9537200927734375, -2.372455358505249, -1.5467692613601685, 0.10259398818016052, -0.2105943600276612, -2.4352038840085584, -6.196224539238728
368397, 1.3095818758010864, -1.73685622215271, -9.704345703125, -0.029353031888604164, 0.02089267410337925, 1.0020674467086792, 0.15309906005859375, 9362.0, 28835.0, 32767.0, 9362.0, 0.0, 7.9537200927734375, -2.372468948364258, -1.546773910522461, 0.10259467363357544, -0.2238573528338941, -2.433289588928602, -6.192070951474647
368407, 1.3097361326217651, -1.7360206842422485, -9.705235481262207, -0.028004270046949387, 0.020897625014185905, 1.0020322799682617, 0.15309906005859375, 9362.0, 28835.0, 32767.0, 9362.0, 0.0, 7.9537200927734375, -2.3724398612976074, -1.546736478805542, 0.1026497334241867, -0.26351736060167297, -2.460769949744247, -6.209468993731034
368417, 1.310184121131897, -1.7354881763458252, -9.70542049407959, -0.027381550520658493, 0.021632350981235504, 1.0024996995925903, 0.15309906005859375, 9362.0, 28835.0, 32767.0, 9362.0, 0.0, 7.9537200927734375, -2.3724517822265625, -1.546769142150879, 0.10257647931575775, -0.22254777160618866, -2.434564371845113, -6.194862361151832
368427, 1.3099119663238525, -1.7374744415283203, -9.706594467163086, -0.028635887429118156, 0.023488987237215042, 1.0024113655090332, 0.15309906005859375, 9362.0, 28835.0, 32767.0, 9362.0, 0.0, 7.9537200927734375, -2.372457981109619, -1.5467759370803833, 0.10261648148298264, -0.2503963690669742, -2.415727090904795, -6.202749299251571
368437, 1.3097786903381348, -1.7377821207046509, -9.707815170288086, -0.027368959039449692, 0.02314673736691475, 1.0020885467529297, 0.10662841796875, 9362.0, 28835.0, 32767.0, 9362.0, 0.0, 7.9537200927734375, -2.372457981109619, -1.5467190742492676, 0.1025666892528534, -0.2610663374341574, -2.4253552006657344, -6.200996954851925
368447, 1.3093757629394531, -1.7377041578292847, -9.708086013793945, -0.026348896324634552, 0.02089649997651577, 1.0026675462722778, 0.10662841796875, 9362.0, 28835.0, 32767.0, 9362.0, 0.0, 7.9537200927734375, -2.3724493980407715, -1.546757459640503, 0.1025901585817337, -0.23447226048560713, -2.438343275902895, -6.211765559706989
368457, 1.3086457252502441, -1.7373089790344238, -9.706965446472168, -0.02759699523448944, 0.020948035642504692, 1.0023448467254639, 0.10662841796875, 9362.0, 28835.0, 32767.0, 9362.0, 0.0, 7.9537200927734375, -2.3724496364593506, -1.546749234199524, 0.10259473323822021, -0.23986989380295257, -2.443292947177696, -6.216389844484672
368467, 1.3079735040664673, -1.7363606691360474, -9.706948280334473, -0.025225713849067688, 0.021323101595044136, 1.0029641389846802, 0.10662841796875, 9362.0, 28835.0, 32767.0, 9362.0, 0.0, 7.9537200927734375, -2.3724586963653564, -1.5467286109924316, 0.10258104652166367, -0.28119101630812005, -2.4274181229943395, -6.21636609292301
368477, 1.3070658445358276, -1.7367002964019775, -9.707157135009766, -0.028036583214998245, 0.020437713712453842, 1.0009371042251587, 0.1148223876953125, 9362.0, 28835.0, 32767.0, 9362.0, 0.0, 7.9537200927734375, -2.373157024383545, -1.5467133522033691, 0.10141584277153015, -0.038741405395552486, -1.5239071201722822, -6.231698885519025
368487, 1.3070005178451538, -1.7378016710281372, -9.70778751373291, -0.02927718125283718, 0.020969141274690628, 1.0007565021514893, 0.1148223876953125, 9362.0, 28835.0, 32767.0, 9362.0, 0.0, 7.9537200927734375, -2.3724286556243896, -1.5467439889907837, 0.10262536257505417, -0.2515594924661106, -2.455121814439451, -6.204632168180561
368497, 1.3054262399673462, -1.7375011444091797, -9.70852279663086, -0.026635564863681793, 0.021339017897844315, 1.0015912055969238, 0.07928466796875, 9362.0, 28835.0, 32767.0, 9362.0, 0.0, 7.9537200927734375, -2.372465133666992, -1.5467414855957031, 0.10258577764034271, -0.24264182609492072, -2.429905888755769, -6.2179560128847715
368507, 1.3052160739898682, -1.736667513847351, -9.70838737487793, -0.02901705540716648, 0.022270550951361656, 1.0011169910430908, 0.07928466796875, 9362.0, 28835.0, 32767.0, 9362.0, 0.0, 7.9537200927734375, -2.3724186420440674, -1.5467703342437744, 0.10259950906038284, -0.24802679987216225, -2.4651788717021077, -6.1973043943772845
368517, 1.3036071062088013, -1.7382177114486694, -9.710179328918457, -0.029063740745186806, 0.02036335878074169, 1.0007141828536987, 0.14217376708984375, 9362.0, 28835.0, 32767.0, 9362.0, 0.0, 7.9537200927734375, -2.3724496364593506, -1.546770691871643, 0.10266225039958954, -0.26027349868498145, -2.46095822821394, -6.203542430867366
368527, 1.302659273147583, -1.7362501621246338, -9.710661888122559, -0.02604728378355503, 0.01990310661494732, 0.9999896287918091, 0.14217376708984375, 9362.0, 28835.0, 32767.0, 9362.0, 0.0, 7.9537200927734375, -2.372441291809082, -1.5467489957809448, 0.10262499749660492, -0.25241578745946786, -2.4561990726258784, -6.196568148441915
368537, 1.3024886846542358, -1.7382501363754272, -9.710427284240723, -0.026570377871394157, 0.020420730113983154, 1.0010453462600708, 0.16677093505859375, 9362.0, 28835.0, 32767.0, 9362.0, 0.0, 7.9537200927734375, -2.3724570274353027, -1.5467439889907837, 0.10259263217449188, -0.24187057394964714, -2.4061710753295245, -6.209623558102987
368547, 1.3027589321136475, -1.7375829219818115, -9.711628913879395, -0.026188701391220093, 0.022380566224455833, 1.0005347728729248, 0.16677093505859375, 9362.0, 28835.0, 32767.0, 9362.0, 0.0, 7.9537200927734375, -2.3724400997161865, -1.546760082244873, 0.10261882841587067, -0.23867452363411756, -2.4706736665871745, -6.206269490877475
368557, 1.3030861616134644, -1.7371728420257568, -9.712658882141113, -0.02756655588746071, 0.02394888550043106, 1.0014934539794922, 0.16403961181640625, 9362.0, 28835.0, 32767.0, 9362.0, 0.0, 7.9537200927734375, -2.3724608421325684, -1.546739101409912, 0.10261715948581696, -0.2697040357050373, -2.466861754705576, -6.207412145990304
368567, 1.301820158958435, -1.7352313995361328, -9.713316917419434, -0.028506970033049583, 0.020659638568758965, 1.0015062093734741, 0.16403961181640625, 9362.0, 28835.0, 32767.0, 9362.0, 0.0, 7.9537200927734375, -2.373140335083008, -1.546708345413208, 0.10139909386634827, -0.04989013094257596, -1.5373199932534476, -6.22764824007156
368577, 1.2999825477600098, -1.734985589981079, -9.713913917541504, -0.02752591110765934, 0.019903026521205902, 1.001478672027588, 0.07928466796875, 9362.0, 28835.0, 32767.0, 9362.0, 0.0, 7.9537200927734375, -2.3724324703216553, -1.5467571020126343, 0.1026218980550766, -0.2541365845653672, -2.4574445968541454, -6.196312216334779
368587, 1.2997280359268188, -1.7356585264205933, -9.714872360229492, -0.028894498944282532, 0.020438071340322495, 0.9992263317108154, 0.07928466796875, 9362.0, 28835.0, 32767.0, 9362.0, 0.0, 7.9537200927734375, -2.372471809387207, -1.5467499494552612, 0.10257759690284729, -0.2557752617576064, -2.4067133456105694, -6.211046569317326
368597, 1.299474835395813, -1.7353085279464722, -9.717002868652344, -0.026125315576791763, 0.02154124341905117, 1.002504587173462, 0.14217376708984375, 9362.0, 28835.0, 32767.0, 9362.0, 0.0, 7.9537200927734375, -2.3724725246429443, -1.5467493534088135, 0.10260792076587677, -0.2646590615627326, -2.4165556467095257, -6.216404884957245
368607, 1.2994540929794312, -1.7356171607971191, -9.717547416687012, -0.026482928544282913, 0.02274397574365139, 1.0022391080856323, 0.14217376708984375, 9362.0, 28835.0, 32767.0, 9362.0, 0.0, 7.9537200927734375, -2.3724327087402344, -1.546757459640503, 0.1026061475276947, -0.24313148932142656, -2.4547203856579642, -6.197613350120759
368617, 1.298834204673767, -1.7373839616775513, -9.721108436584473, -0.027727045118808746, 0.023027759045362473, 1.0000991821289062, 0.13123321533203125, 9362.0, 28835.0, 32767.0, 9362.0, 0.0, 7.9537200927734375, -2.372445821762085, -1.5467734336853027, 0.10257554054260254, -0.2208550763148548, -2.4219715967434183, -6.20395313122035
368627, 1.2987149953842163, -1.7358020544052124, -9.721685409545898, -0.0280744805932045, 0.021751604974269867, 0.9991058111190796, 0.13123321533203125, 9362.0, 28835.0, 32767.0, 9362.0, 0.0, 7.9537200927734375, -2.3731396198272705, -1.5466876029968262, 0.10141853988170624, -0.044475588805013885, -1.5395913248989075, -6.2327746545752865
368637, 1.2980389595031738, -1.7352588176727295, -9.723621368408203, -0.02926284447312355, 0.020045112818479538, 0.9998961687088013, 0.1230316162109375, 9362.0, 28835.0, 32767.0, 9362.0, 0.0, 7.9537200927734375, -2.372481346130371, -1.546741247177124, 0.10258176922798157, -0.2752423151222308, -2.4212149398294116, -6.211109220526462
368647, 1.298920750617981, -1.7350680828094482, -9.724184036254883, -0.028736431151628494, 0.022487249225378036, 0.999915361404419, 0.1230316162109375, 9362.0, 28835.0, 32767.0, 9362.0, 0.0, 7.9537200927734375, -2.37248158454895, -1.546754002571106, 0.10255628079175949, -0.23972958173427292, -2.386630244388215, -6.206259985052001
368657, 1.2987836599349976, -1.7340706586837769, -9.725214004516602, -0.028834328055381775, 0.02146480232477188, 0.9983395338058472, 0.1749725341796875, 9362.0, 28835.0, 32767.0, 9362.0, 0.0, 7.9537200927734375, -2.3724350929260254, -1.5467642545700073, 0.10261327773332596, -0.25408130112918137, -2.469116667566226, -6.198433306034471
368667, 1.2987138032913208, -1.7344903945922852, -9.726205825805664, -0.02638520859181881, 0.02226848527789116, 1.0020229816436768, 0.1749725341796875, 9362.0, 28835.0, 32767.0, 9362.0, 0.0, 7.9537200927734375, -2.3724539279937744, -1.5467551946640015, 0.10260656476020813, -0.24624476648105859, -2.4528258062837835, -6.208099024873457
368677, 1.3000684976577759, -1.7335267066955566, -9.726387023925781, -0.026810549199581146, 0.021968405693769455, 1.0013104677200317, 0.14763641357421875, 9362.0, 28835.0, 32767.0, 9362.0, 0.0, 7.9537200927734375, -2.3724756240844727, -1.546738862991333, 0.10257531702518463, -0.2609618476386312, -2.427739790441109, -6.209807792569497
368687, 1.3003535270690918, -1.7339476346969604, -9.725898742675781, -0.02891034260392189, 0.023575542494654655, 1.0011898279190063, 0.14763641357421875, 9362.0, 28835.0, 32767.0, 9362.0, 0.0, 7.9537200927734375, -2.372462749481201, -1.5467537641525269, 0.10252445936203003, -0.23558098739728933, -2.4184553131479163, -6.215504972089605
368697, 1.3010773658752441, -1.7345384359359741, -9.727012634277344, -0.028525331988930702, 0.021460406482219696, 1.0021532773971558, 0.07928466796875, 9362.0, 28835.0, 32767.0, 9362.0, 0.0, 7.9537200927734375, -2.373133420944214, -1.5466830730438232, 0.101445272564888, -0.065840861701815, -1.5555557896007883, -6.231143271299502
368707, 1.3008884191513062, -1.7341842651367188, -9.727696418762207, -0.028507761657238007, 0.020890360698103905, 1.0015778541564941, 0.07928466796875, 9362.0, 28835.0, 32767.0, 9362.0, 0.0, 7.9537200927734375, -2.3724629878997803, -1.5467541217803955, 0.10261319577693939, -0.24604741913952896, -2.4186364001656386, -6.204881180617686
368717, 1.3014670610427856, -1.7337020635604858, -9.728250503540039, -0.02732205204665661, 0.02312556467950344, 1.0013107061386108, 0.16130828857421875, 9362.0, 28835.0, 32767.0, 9362.0, 0.0, 7.9537200927734375, -2.3724477291107178, -1.5467311143875122, 0.10263679921627045, -0.268097102126698, -2.4576154809315938, -6.216553809825905
368727, 1.3030191659927368, -1.7332112789154053, -9.728737831115723, -0.027615057304501534, 0.02421226166188717, 1.0009632110595703, 0.16130828857421875, 9362.0, 28835.0, 32767.0, 9362.0, 0.0, 7.9537200927734375, -2.3724584579467773, -1.5467400550842285, 0.10260073095560074, -0.24280802145106836, -2.4435067395743033, -6.20550245600435
368737, 1.3035054206848145, -1.7335493564605713, -9.728824615478516, -0.027930311858654022, 0.023392917588353157, 1.0005522966384888, 0.2023162841796875, 9362.0, 28835.0, 32767.0, 9362.0, 0.0, 7.9537200927734375, -2.372471332550049, -1.5467708110809326, 0.10259316861629486, -0.23166173020307018, -2.430115875133879, -6.21311302080192
368747, 1.3037620782852173, -1.7324153184890747, -9.729512214660645, -0.02722802944481373, 0.02221967838704586, 0.9997998476028442, 0.2023162841796875, 9362.0, 28835.0, 32767.0, 9362.0, 0.0, 7.9537200927734375, -2.372436046600342, -1.5467407703399658, 0.10261597484350204, -0.2520466518652, -2.421158156913293, -6.2111115363124565
368757, 1.30453360080719, -1.730955719947815, -9.728439331054688, -0.02619507536292076, 0.02340925671160221, 0.9994308948516846, 0.1695098876953125, 9362.0, 28835.0, 32767.0, 9362.0, 0.0, 7.9537200927734375, -2.3724746704101562, -1.5467671155929565, 0.10258835554122925, -0.23471776345381, -2.4153243348161766, -6.204031842824616
368767, 1.3033044338226318, -1.7299731969833374, -9.728471755981445, -0.028708873316645622, 0.021653223782777786, 0.9987901449203491, 0.1695098876953125, 9362.0, 28835.0, 32767.0, 9362.0, 0.0, 7.9537200927734375, -2.372441530227661, -1.5467473268508911, 0.10261890292167664, -0.2708770517785783, -2.4527853496054206, -6.202789301324787
368777, 1.3029354810714722, -1.7307096719741821, -9.728894233703613, -0.029644222930073738, 0.02273641712963581, 0.9987645745277405, 0.15036773681640625, 9362.0, 28835.0, 32767.0, 9362.0, 0.0, 7.9537200927734375, -2.372438669204712, -1.5467476844787598, 0.10260383784770966, -0.27568988191674565, -2.4556018638457715, -6.204923602015623
368787, 1.302244782447815, -1.7309629917144775, -9.728185653686523, -0.02621622383594513, 0.02170473337173462, 1.0020732879638672, 0.15036773681640625, 9362.0, 28835.0, 32767.0, 9362.0, 0.0, 7.9537200927734375, -2.3731112480163574, -1.546716332435608, 0.10143129527568817, -0.040641062770482655, -1.570106151773956, -6.22583662117785
368797, 1.3026994466781616, -1.7318048477172852, -9.729531288146973, -0.028384432196617126, 0.02074483036994934, 1.0024926662445068, 0.07381439208984375, 9362.0, 28835.0, 32767.0, 9362.0, 0.0, 7.9537200927734375, -2.3724236488342285, -1.5467573404312134, 0.10265938937664032, -0.261911839236434, -2.456145889376671, -6.196736994469195
368807, 1.3002851009368896, -1.7316354513168335, -9.730161666870117, -0.0288194939494133, 0.021516960114240646, 1.0020792484283447, 0.07381439208984375, 9362.0, 28835.0, 32767.0, 9362.0, 0.0, 7.9537200927734375, -2.372485637664795, -1.5467478036880493, 0.10258837044239044, -0.25708825792769474, -2.398212487844688, -6.207253422650269
368817, 1.3009295463562012, -1.7319551706314087, -9.731325149536133, -0.028715580701828003, 0.02018524706363678, 1.0009560585021973, 0.125762939453125, 9362.0, 28835.0, 32767.0, 9362.0, 0.0, 7.9537200927734375, -2.3724427223205566, -1.546758770942688, 0.10261422395706177, -0.24773675353190952, -2.4376189455938686, -6.2000873388788245
368827, 1.3021228313446045, -1.7331669330596924, -9.73120403289795, -0.02766665257513523, 0.021729353815317154, 1.000968337059021, 0.125762939453125, 9362.0, 28835.0, 32767.0, 9362.0, 0.0, 7.9537200927734375, -2.3724255561828613, -1.5467737913131714, 0.10263458639383316, -0.24559693571154806, -2.4683976963636667, -6.198743267278073
368837, 1.3001450300216675, -1.7335309982299805, -9.732351303100586, -0.027204588055610657, 0.0213353019207716, 1.0009996891021729, 0.1749725341796875, 9362.0, 28835.0, 32767.0, 9362.0, 0.0, 7.9537200927734375, -2.3724379539489746, -1.5467947721481323, 0.10265620797872543, -0.24238003839964528, -2.4733538124136487, -6.19855709989737
368847, 1.3009538650512695, -1.7348275184631348, -9.733840942382812, -0.02920597791671753, 0.02155335247516632, 1.0002082586288452, 0.1749725341796875, 9362.0, 28835.0, 32767.0, 9362.0, 0.0, 7.9537200927734375, -2.3724212646484375, -1.5467301607131958, 0.10263519734144211, -0.2882615413842457, -2.4590548754519546, -6.19573631452736
368857, 1.3000801801681519, -1.7340075969696045, -9.735732078552246, -0.028516920283436775, 0.020592782646417618, 1.0009589195251465, 0.17771148681640625, 9362.0, 28835.0, 32767.0, 9362.0, 0.0, 7.9537200927734375, -2.373129367828369, -1.5466915369033813, 0.10143473744392395, -0.05021563242776283, -1.5528567180912205, -6.239478567180287
368867, 1.3002269268035889, -1.7356572151184082, -9.73668098449707, -0.028160298243165016, 0.022621359676122665, 1.0007381439208984, 0.17771148681640625, 9362.0, 28835.0, 32767.0, 9362.0, 0.0, 7.9537200927734375, -2.3724606037139893, -1.546738862991333, 0.10257983207702637, -0.2689256250166923, -2.398996947070259, -6.198007972475041
368877, 1.2990223169326782, -1.7364481687545776, -9.738615036010742, -0.02916867658495903, 0.021657075732946396, 1.0016440153121948, 0.18044281005859375, 9362.0, 28835.0, 32767.0, 9362.0, 0.0, 7.9537200927734375, -2.372487783432007, -1.54672110080719, 0.10253389924764633, -0.2508969705895222, -2.4075206456603837, -6.215482613962019
368887, 1.2990719079971313, -1.736048698425293, -9.739428520202637, -0.027702411636710167, 0.02033447101712227, 1.0015798807144165, 0.18044281005859375, 9362.0, 28835.0, 32767.0, 9362.0, 0.0, 7.9537200927734375, -2.3724300861358643, -1.5467808246612549, 0.10263366997241974, -0.2436124478184768, -2.473125075003537, -6.19597096106059
368897, 1.2985416650772095, -1.7347686290740967, -9.742340087890625, -0.027119096368551254, 0.01969223842024803, 1.000093936920166, 0.1831817626953125, 9362.0, 28835.0, 32767.0, 9362.0, 0.0, 7.9537200927734375, -2.3724377155303955, -1.5467772483825684, 0.10265844315290451, -0.23413484603783102, -2.463784914824913, -6.198989999758026
368907, 1.2994036674499512, -1.7334650754928589, -9.74389362335205, -0.025094231590628624, 0.020062889903783798, 0.9997144937515259, 0.1831817626953125, 9362.0, 28835.0, 32767.0, 9362.0, 0.0, 7.9537200927734375, -2.372459888458252, -1.5467571020126343, 0.1026102602481842, -0.2704472790624118, -2.453272021679595, -6.20077176943397
368917, 1.2980828285217285, -1.7315362691879272, -9.745817184448242, -0.024949828162789345, 0.02069447562098503, 0.9981409907341003, 0.27339935302734375, 9362.0, 28835.0, 32767.0, 9362.0, 0.0, 7.9537200927734375, -2.3724918365478516, -1.5467487573623657, 0.10254628956317902, -0.24799272919009563, -2.3873807747498574, -6.211490550017057
368927, 1.2974371910095215, -1.7313271760940552, -9.7465181350708, -0.028400618582963943, 0.02025245502591133, 0.9992445111274719, 0.27339935302734375, 9362.0, 28835.0, 32767.0, 9362.0, 0.0, 7.9537200927734375, -2.3724448680877686, -1.546758770942688, 0.10262791067361832, -0.2448493724660316, -2.4488636555409755, -6.204835283187254
368937, 1.2970678806304932, -1.7327218055725098, -9.747562408447266, -0.028318556025624275, 0.02113557979464531, 0.9999997615814209, 0.1859130859375, 9362.0, 28835.0, 32767.0, 9362.0, 0.0, 7.9537200927734375, -2.3724608421325684, -1.5467723608016968, 0.10258489102125168, -0.25338233522848996, -2.4398130667183295, -6.211836176696155
368947, 1.2968800067901611, -1.732110619544983, -9.747623443603516, -0.027842365205287933, 0.021540720015764236, 1.0015615224838257, 0.1859130859375, 9362.0, 28835.0, 32767.0, 9362.0, 0.0, 7.9537200927734375, -2.37248158454895, -1.5467458963394165, 0.10257303714752197, -0.24780906342616774, -2.4194619934932007, -6.207544749490256
368957, 1.2979155778884888, -1.7329812049865723, -9.747775077819824, -0.028226085007190704, 0.023296119645237923, 1.001965880393982, 0.15583038330078125, 9362.0, 28835.0, 32767.0, 9362.0, 0.0, 7.9537200927734375, -2.3731369972229004, -1.5467031002044678, 0.10139818489551544, -0.0462634759095805, -1.5450783147631455, -6.215898163394466
368967, 1.2986021041870117, -1.7327499389648438, -9.748072624206543, -0.02668887749314308, 0.02292511984705925, 1.000064730644226, 0.15583038330078125, 9362.0, 28835.0, 32767.0, 9362.0, 0.0, 7.9537200927734375, -2.372432231903076, -1.546746850013733, 0.10262230038642883, -0.24647528320262363, -2.462466901369851, -6.196355846456551
368977, 1.2993379831314087, -1.730985403060913, -9.747435569763184, -0.028498278930783272, 0.020253147929906845, 1.0009814500808716, 0.1859130859375, 9362.0, 28835.0, 32767.0, 9362.0, 0.0, 7.9537200927734375, -2.3724398612976074, -1.5467824935913086, 0.10260488092899323, -0.23148442225258173, -2.4564602512743647, -6.189887703345031
368987, 1.2997335195541382, -1.7311444282531738, -9.747359275817871, -0.02859281562268734, 0.02283024787902832, 1.0017292499542236, 0.1859130859375, 9362.0, 28835.0, 32767.0, 9362.0, 0.0, 7.9537200927734375, -2.3724353313446045, -1.5467674732208252, 0.10262179374694824, -0.2717086838181457, -2.4506815110174784, -6.201158304527767
368997, 1.298406958580017, -1.731748104095459, -9.747705459594727, -0.027524743229150772, 0.0224302988499403, 1.0012727975845337, 0.0628814697265625, 9362.0, 28835.0, 32767.0, 9362.0, 0.0, 7.9537200927734375, -2.372451066970825, -1.5467259883880615, 0.10256002843379974, -0.2560303886286483, -2.4346833043549054, -6.206704859890149
369007, 1.2997816801071167, -1.7324620485305786, -9.746550559997559, -0.027100704610347748, 0.021454503759741783, 1.001205563545227, 0.0628814697265625, 9362.0, 28835.0, 32767.0, 9362.0, 0.0, 7.9537200927734375, -2.3731307983398438, -1.5467013120651245, 0.10143011808395386, -0.058851302604075305, -1.568381006572281, -6.23407365747195
369017, 1.2987279891967773, -1.7306731939315796, -9.747305870056152, -0.027019932866096497, 0.022150186821818352, 1.0013930797576904, 0.02733612060546875, 9362.0, 28835.0, 32767.0, 9362.0, 0.0, 7.9537200927734375, -2.3724701404571533, -1.546757698059082, 0.10258154571056366, -0.23163338012837892, -2.4112378938760344, -6.203343392791392
369027, 1.2989310026168823, -1.7300137281417847, -9.748163223266602, -0.026737384498119354, 0.021913595497608185, 1.0006942749023438, 0.02733612060546875, 9362.0, 28835.0, 32767.0, 9362.0, 0.0, 7.9537200927734375, -2.372448205947876, -1.5467839241027832, 0.10260270535945892, -0.23504351622888378, -2.442443074620911, -6.193769393668725
369037, 1.2984275817871094, -1.730226755142212, -9.749195098876953, -0.028129495680332184, 0.021645566448569298, 1.0013799667358398, 0.05741119384765625, 9362.0, 28835.0, 32767.0, 9362.0, 0.0, 7.9537200927734375, -2.372448682785034, -1.5467493534088135, 0.10257399082183838, -0.25226228103593734, -2.4564173890932466, -6.203925741514367
369047, 1.2979449033737183, -1.7304149866104126, -9.748640060424805, -0.02817847952246666, 0.021823927760124207, 1.001011610031128, 0.05741119384765625, 9362.0, 28835.0, 32767.0, 9362.0, 0.0, 7.9537200927734375, -2.372446060180664, -1.546739935874939, 0.1025664433836937, -0.2456362869010248, -2.4395976120411262, -6.200086144373958
369057, 1.2980473041534424, -1.727773666381836, -9.747332572937012, -0.02730523608624935, 0.022204790264368057, 0.9995543956756592, 0.1011505126953125, 9362.0, 28835.0, 32767.0, 9362.0, 0.0, 7.9537200927734375, -2.372462749481201, -1.5467357635498047, 0.10258601605892181, -0.25130510786693605, -2.406148633256265, -6.212569545008416
369067, 1.2976588010787964, -1.7265002727508545, -9.74870777130127, -0.02772093191742897, 0.022199317812919617, 1.0004903078079224, 0.1011505126953125, 9362.0, 28835.0, 32767.0, 9362.0, 0.0, 7.9537200927734375, -2.3731422424316406, -1.5467156171798706, 0.1014152318239212, -0.0281328765497548, -1.5390693093006576, -6.229229392593034
369077, 1.2970739603042603, -1.7285327911376953, -9.749310493469238, -0.027566328644752502, 0.02148071676492691, 1.0024590492248535, 0.112091064453125, 9362.0, 28835.0, 32767.0, 9362.0, 0.0, 7.9537200927734375, -2.3724820613861084, -1.5467398166656494, 0.10258764028549194, -0.24912055478382614, -2.4211794458632028, -6.20819535336738
369087, 1.296082854270935, -1.7273863554000854, -9.751118659973145, -0.02843671664595604, 0.021926213055849075, 1.0010838508605957, 0.112091064453125, 9362.0, 28835.0, 32767.0, 9362.0, 0.0, 7.9537200927734375, -2.3731305599212646, -1.546699047088623, 0.10142499953508377, -0.0456954566430689, -1.5625319540110638, -6.233879241722703
369097, 1.2953089475631714, -1.730163812637329, -9.752820014953613, -0.02701217494904995, 0.021964792162179947, 0.9995512962341309, 0.08475494384765625, 9362.0, 28835.0, 32767.0, 9362.0, 0.0, 7.9537200927734375, -2.372443914413452, -1.546729564666748, 0.10261532664299011, -0.2711600887558469, -2.4449361045731735, -6.212802005308604
369107, 1.2945985794067383, -1.729682207107544, -9.75400447845459, -0.026956874877214432, 0.02152521349489689, 1.0001862049102783, 0.08475494384765625, 9362.0, 28835.0, 32767.0, 9362.0, 0.0, 7.9537200927734375, -2.3731210231781006, -1.5466984510421753, 0.10142403841018677, -0.07399458684794037, -1.5771031266364446, -6.231006438966477
369117, 1.2945570945739746, -1.7311501502990723, -9.755579948425293, -0.025753600522875786, 0.021860506385564804, 1.0016616582870483, 0.07928466796875, 9362.0, 28835.0, 32767.0, 9362.0, 0.0, 7.9537200927734375, -2.3724701404571533, -1.5467525720596313, 0.10257658362388611, -0.2584474783282185, -2.419936888277533, -6.199274021763199
369127, 1.2938721179962158, -1.731165885925293, -9.757051467895508, -0.027641817927360535, 0.02134583331644535, 1.0013173818588257, 0.07928466796875, 9362.0, 28835.0, 32767.0, 9362.0, 0.0, 7.9537200927734375, -2.3724372386932373, -1.5467381477355957, 0.10260524600744247, -0.2689399101120548, -2.4558053494948524, -6.2074846628307006
369137, 1.292762041091919, -1.7334271669387817, -9.758808135986328, -0.028429143130779266, 0.022538382560014725, 1.0011889934539795, 0.11756134033203125, 9362.0, 28835.0, 32767.0, 9362.0, 0.0, 7.9537200927734375, -2.372448205947876, -1.5467901229858398, 0.10259416699409485, -0.2395270702736962, -2.4318552946979253, -6.205693044920217
369147, 1.293395757675171, -1.7332298755645752, -9.759967803955078, -0.030580218881368637, 0.021133696660399437, 0.999625027179718, 0.11756134033203125, 9362.0, 28835.0, 32767.0, 9362.0, 0.0, 7.9537200927734375, -2.372448444366455, -1.546744704246521, 0.10259592533111572, -0.2571180904851241, -2.436363153854984, -6.204845998037631
369157, 1.2935657501220703, -1.733726143836975, -9.761310577392578, -0.028922589495778084, 0.018642829731106758, 0.9998704195022583, 0.13396453857421875, 9362.0, 28835.0, 32767.0, 9362.0, 0.0, 7.9537200927734375, -2.3724985122680664, -1.5467524528503418, 0.10261186957359314, -0.25870291646824495, -2.4237738869456393, -6.212095027195998
369167, 1.2945126295089722, -1.734702706336975, -9.762408256530762, -0.026840774342417717, 0.021152889356017113, 0.9998669624328613, 0.13396453857421875, 9362.0, 28835.0, 32767.0, 9362.0, 0.0, 7.9537200927734375, -2.3724448680877686, -1.5467619895935059, 0.10262826085090637, -0.2489924219497096, -2.4604447859570087, -6.18943624132292
369177, 1.2954691648483276, -1.7353520393371582, -9.763789176940918, -0.02682303451001644, 0.024380620568990707, 0.9994041919708252, 0.09295654296875, 9362.0, 28835.0, 32767.0, 9362.0, 0.0, 7.9537200927734375, -2.3724424839019775, -1.546766757965088, 0.10259266197681427, -0.2656918774216596, -2.424926870458364, -6.204856156683081
369187, 1.2965883016586304, -1.735416054725647, -9.76587200164795, -0.028769467025995255, 0.02345776930451393, 0.9983935952186584, 0.09295654296875, 9362.0, 28835.0, 32767.0, 9362.0, 0.0, 7.9537200927734375, -2.3724629878997803, -1.546783447265625, 0.10260489583015442, -0.24030727470552654, -2.449029897865927, -6.204251942034963
369197, 1.2989540100097656, -1.7340073585510254, -9.7671537399292, -0.02765120193362236, 0.022665251046419144, 0.9999134540557861, 0.1148223876953125, 9362.0, 28835.0, 32767.0, 9362.0, 0.0, 7.9537200927734375, -2.3724706172943115, -1.546744704246521, 0.10260952264070511, -0.2594493570077554, -2.432802950985007, -6.211490390621071
369207, 1.2993574142456055, -1.7320914268493652, -9.768280982971191, -0.025769954547286034, 0.020931309089064598, 1.001145839691162, 0.1148223876953125, 9362.0, 28835.0, 32767.0, 9362.0, 0.0, 7.9537200927734375, -2.3724334239959717, -1.5467400550842285, 0.10262314975261688, -0.26661538828859427, -2.4879663286485254, -6.196119024448352
369217, 1.2990684509277344, -1.7315112352371216, -9.770163536071777, -0.02800147794187069, 0.021719926968216896, 1.0012078285217285, 0.17771148681640625, 9362.0, 28835.0, 32767.0, 9362.0, 0.0, 7.9537200927734375, -2.373112440109253, -1.546686053276062, 0.10140398889780045, -0.05339560405037914, -1.5619623899290218, -6.229192103690463
369227, 1.2981081008911133, -1.731925129890442, -9.771698951721191, -0.027808833867311478, 0.023020988330245018, 1.0023020505905151, 0.17771148681640625, 9362.0, 28835.0, 32767.0, 9362.0, 0.0, 7.9537200927734375, -2.372462034225464, -1.546738862991333, 0.10257621109485626, -0.25002205137955924, -2.4225255596159627, -6.217127316006618
369237, 1.2984553575515747, -1.7335323095321655, -9.771976470947266, -0.027567118406295776, 0.024464992806315422, 1.0010254383087158, 0.18044281005859375, 9362.0, 28835.0, 32767.0, 9362.0, 0.0, 7.9537200927734375, -2.373117685317993, -1.546683669090271, 0.10144729167222977, -0.07316142005784047, -1.5807670398348819, -6.230376067302202
369247, 1.2976917028427124, -1.73415207862854, -9.773785591125488, -0.027800053358078003, 0.02152973972260952, 1.0013000965118408, 0.18044281005859375, 9362.0, 28835.0, 32767.0, 9362.0, 0.0, 7.9537200927734375, -2.3731272220611572, -1.546696662902832, 0.10142587870359421, -0.058875169524029436, -1.5812381413721255, -6.228854375428885
369257, 1.2980977296829224, -1.734962821006775, -9.775300025939941, -0.026488615199923515, 0.022117242217063904, 0.9998791813850403, 0.205047607421875, 9362.0, 28835.0, 32767.0, 9362.0, 0.0, 7.9537200927734375, -2.3731284141540527, -1.5466852188110352, 0.10140681266784668, -0.05524163202487869, -1.5665876229888909, -6.2365874639553525
369267, 1.296399474143982, -1.7335591316223145, -9.776710510253906, -0.026212964206933975, 0.020297087728977203, 1.0009561777114868, 0.205047607421875, 9362.0, 28835.0, 32767.0, 9362.0, 0.0, 7.9537200927734375, -2.372481346130371, -1.546769380569458, 0.10256887227296829, -0.22795843030366636, -2.4007794528748434, -6.212884274153936
369277, 1.295699119567871, -1.7314058542251587, -9.776957511901855, -0.02705569751560688, 0.021895719692111015, 1.001204013824463, 0.21051788330078125, 9362.0, 28835.0, 32767.0, 9362.0, 0.0, 7.9537200927734375, -2.3724141120910645, -1.5467908382415771, 0.10264331102371216, -0.24829642139619792, -2.486125248737153, -6.20006005502981
369287, 1.2966123819351196, -1.7301366329193115, -9.776076316833496, -0.027176957577466965, 0.022289559245109558, 1.0004194974899292, 0.21051788330078125, 9362.0, 28835.0, 32767.0, 9362.0, 0.0, 7.9537200927734375, -2.3731508255004883, -1.5467145442962646, 0.10141495615243912, -0.02163215717465845, -1.5567781210012868, -6.240512077447721
369297, 1.2945480346679688, -1.7295260429382324, -9.776765823364258, -0.02696128375828266, 0.02162139117717743, 1.0000009536743164, 0.2159881591796875, 9362.0, 28835.0, 32767.0, 9362.0, 0.0, 7.9537200927734375, -2.372418165206909, -1.5467795133590698, 0.10264117270708084, -0.24957515260644625, -2.5125782027528487, -6.199412398986338
369307, 1.2962902784347534, -1.7287698984146118, -9.776424407958984, -0.02693154476583004, 0.021518707275390625, 1.000124216079712, 0.2159881591796875, 9362.0, 28835.0, 32767.0, 9362.0, 0.0, 7.9537200927734375, -2.372476577758789, -1.5467790365219116, 0.10260467231273651, -0.2284024366837146, -2.4140242417792592, -6.224414937834639
369317, 1.2971503734588623, -1.7302361726760864, -9.777327537536621, -0.026209956035017967, 0.021789824590086937, 1.0016443729400635, 0.16403961181640625, 9362.0, 28835.0, 32767.0, 9362.0, 0.0, 7.9537200927734375, -2.3724546432495117, -1.5467534065246582, 0.1026219055056572, -0.2508569602251826, -2.4634188341622405, -6.204557719872211
369327, 1.2977616786956787, -1.7298182249069214, -9.777170181274414, -0.027271535247564316, 0.022559141740202904, 1.0020289421081543, 0.16403961181640625, 9362.0, 28835.0, 32767.0, 9362.0, 0.0, 7.9537200927734375, -2.3724586963653564, -1.5467584133148193, 0.10257433354854584, -0.23547455781025303, -2.449351133909772, -6.207631870098376
369337, 1.2985448837280273, -1.7294881343841553, -9.778299331665039, -0.03125976771116257, 0.022624563425779343, 1.0004695653915405, 0.1038970947265625, 9362.0, 28835.0, 32767.0, 9362.0, 0.0, 7.9537200927734375, -2.373155117034912, -1.5466911792755127, 0.10142125189304352, -0.05181465008028586, -1.5423714673327709, -6.2387485896186154
369347, 1.2986830472946167, -1.7288050651550293, -9.779029846191406, -0.027074474841356277, 0.02131682261824608, 1.000504970550537, 0.1038970947265625, 9362.0, 28835.0, 32767.0, 9362.0, 0.0, 7.9537200927734375, -2.3724398612976074, -1.546740174293518, 0.102645143866539, -0.26395958954858384, -2.4523169398769653, -6.2039376299892925
369357, 1.2989168167114258, -1.7289413213729858, -9.779078483581543, -0.026266373693943024, 0.021432099863886833, 1.0009303092956543, 0.0902252197265625, 9362.0, 28835.0, 32767.0, 9362.0, 0.0, 7.9537200927734375, -2.372460126876831, -1.546756386756897, 0.10260233283042908, -0.24883899016195463, -2.437881741702796, -6.210535471772558
369367, 1.2992160320281982, -1.7287015914916992, -9.779901504516602, -0.02794663980603218, 0.022280625998973846, 1.0016971826553345, 0.0902252197265625, 9362.0, 28835.0, 32767.0, 9362.0, 0.0, 7.9537200927734375, -2.3724589347839355, -1.5467437505722046, 0.10259973257780075, -0.2458646643692399, -2.421998661965773, -6.205005165163446
369377, 1.300676703453064, -1.7295337915420532, -9.779229164123535, -0.030720630660653114, 0.02211805433034897, 1.0013606548309326, 0.05741119384765625, 9362.0, 28835.0, 32767.0, 9362.0, 0.0, 7.9537200927734375, -2.3731279373168945, -1.5466854572296143, 0.10143150389194489, -0.08832967972183385, -1.5585306449909808, -6.236179523264835
369387, 1.3001028299331665, -1.729731559753418, -9.780296325683594, -0.02834305725991726, 0.023302290588617325, 1.0025575160980225, 0.05741119384765625, 9362.0, 28835.0, 32767.0, 9362.0, 0.0, 7.9537200927734375, -2.372455596923828, -1.5467649698257446, 0.10262106359004974, -0.24679508647820675, -2.444593698267795, -6.199033329639933
369397, 1.2984541654586792, -1.727725625038147, -9.781306266784668, -0.027650363743305206, 0.02183210477232933, 1.00142240524292, 0.1011505126953125, 9362.0, 28835.0, 32767.0, 9362.0, 0.0, 7.9537200927734375, -2.372451066970825, -1.5467302799224854, 0.10260198265314102, -0.2497370955029136, -2.451555016149456, -6.209603624125345
369407, 1.2980602979660034, -1.7278372049331665, -9.783100128173828, -0.028757791966199875, 0.021951226517558098, 1.00100839138031, 0.1011505126953125, 9362.0, 28835.0, 32767.0, 9362.0, 0.0, 7.9537200927734375, -2.37241530418396, -1.5467416048049927, 0.10263120383024216, -0.2765704794118185, -2.4772391324777914, -6.202212683477581
369417, 1.298723578453064, -1.7258437871932983, -9.784421920776367, -0.028789591044187546, 0.02252345159649849, 1.001096248626709, 0.17771148681640625, 9362.0, 28835.0, 32767.0, 9362.0, 0.0, 7.9537200927734375, -2.3724589347839355, -1.546754002571106, 0.10254159569740295, -0.21275101971561378, -2.420020921475981, -6.2171065901894345
369427, 1.298444390296936, -1.726554036140442, -9.78685188293457, -0.025654951110482216, 0.02471347711980343, 0.9999005794525146, 0.17771148681640625, 9362.0, 28835.0, 32767.0, 9362.0, 0.0, 7.9537200927734375, -2.3731331825256348, -1.5466828346252441, 0.10141801834106445, -0.062207614510753594, -1.5568353017445418, -6.239579298438841
369437, 1.2988412380218506, -1.7264851331710815, -9.78823184967041, -0.02626817673444748, 0.023927515372633934, 0.9994064569473267, 0.191375732421875, 9362.0, 28835.0, 32767.0, 9362.0, 0.0, 7.9537200927734375, -2.3731088638305664, -1.5466907024383545, 0.10147334635257721, -0.06551915559691467, -1.5819302436703992, -6.228536411866195
369447, 1.298457145690918, -1.7256463766098022, -9.788448333740234, -0.027105368673801422, 0.020473461598157883, 1.0020097494125366, 0.191375732421875, 9362.0, 28835.0, 32767.0, 9362.0, 0.0, 7.9537200927734375, -2.3724751472473145, -1.546764612197876, 0.10260067880153656, -0.23162720303311374, -2.4308515675935496, -6.208659974020721
369457, 1.297115445137024, -1.7277809381484985, -9.79124927520752, -0.027452707290649414, 0.020439982414245605, 1.0042963027954102, 0.1093597412109375, 9362.0, 28835.0, 32767.0, 9362.0, 0.0, 7.9537200927734375, -2.372474431991577, -1.5467675924301147, 0.10259613394737244, -0.2528847245816206, -2.424895822291262, -6.2147811165456694
369467, 1.297103762626648, -1.7286896705627441, -9.792046546936035, -0.026731114834547043, 0.02102765440940857, 0.9998856782913208, 0.1093597412109375, 9362.0, 28835.0, 32767.0, 9362.0, 0.0, 7.9537200927734375, -2.3731436729431152, -1.5466980934143066, 0.10140928626060486, -0.04212417222332212, -1.53830143462028, -6.235835611803607
369477, 1.2968449592590332, -1.7276740074157715, -9.792953491210938, -0.027329005300998688, 0.021316232159733772, 0.9996044039726257, 0.15309906005859375, 9362.0, 28835.0, 32767.0, 9362.0, 0.0, 7.9537200927734375, -2.372462034225464, -1.5467387437820435, 0.10259135067462921, -0.24664441382659677, -2.4208561604060606, -6.208899251945361
369487, 1.298266053199768, -1.7281972169876099, -9.794285774230957, -0.027847260236740112, 0.0208833497017622, 1.0008262395858765, 0.15309906005859375, 9362.0, 28835.0, 32767.0, 9362.0, 0.0, 7.9537200927734375, -2.3724515438079834, -1.5467629432678223, 0.10258543491363525, -0.23858619825709465, -2.438634627360983, -6.222278147867313
369497, 1.298610806465149, -1.7281872034072876, -9.796067237854004, -0.028361324220895767, 0.022563425824046135, 1.0019034147262573, 0.16130828857421875, 9362.0, 28835.0, 32767.0, 9362.0, 0.0, 7.9537200927734375, -2.3731186389923096, -1.5466959476470947, 0.10139113664627075, -0.038191770515051765, -1.5628143915249666, -6.235711406146879
369507, 1.2982949018478394, -1.7272040843963623, -9.79677963256836, -0.02757198177278042, 0.02161751687526703, 1.0024179220199585, 0.16130828857421875, 9362.0, 28835.0, 32767.0, 9362.0, 0.0, 7.9537200927734375, -2.3731095790863037, -1.5467088222503662, 0.10140100866556168, -0.047731938538617645, -1.568192681982282, -6.239250185399729
369517, 1.2973514795303345, -1.7292271852493286, -9.799160957336426, -0.02723383530974388, 0.021585095673799515, 1.0015463829040527, 0.12029266357421875, 9362.0, 28835.0, 32767.0, 9362.0, 0.0, 7.9537200927734375, -2.3731307983398438, -1.546695590019226, 0.10140939056873322, -0.05596667226285062, -1.5497618877130321, -6.253747409695117
369527, 1.296663522720337, -1.729511022567749, -9.801284790039062, -0.026647178456187248, 0.020453089848160744, 1.000854730606079, 0.12029266357421875, 9362.0, 28835.0, 32767.0, 9362.0, 0.0, 7.9537200927734375, -2.3724429607391357, -1.5467454195022583, 0.10256590694189072, -0.2297208388948597, -2.4472590467039197, -6.202067555419073
369537, 1.296615719795227, -1.7279508113861084, -9.80276870727539, -0.027554968371987343, 0.021594427525997162, 1.000732421875, 0.1148223876953125, 9362.0, 28835.0, 32767.0, 9362.0, 0.0, 7.9537200927734375, -2.3724374771118164, -1.5467513799667358, 0.10262057930231094, -0.2382284778227129, -2.449986569724416, -6.207834827564498
369547, 1.2969396114349365, -1.728761911392212, -9.803603172302246, -0.02758239582180977, 0.02197885885834694, 1.0016677379608154, 0.1148223876953125, 9362.0, 28835.0, 32767.0, 9362.0, 0.0, 7.9537200927734375, -2.3724236488342285, -1.5467389822006226, 0.1026284247636795, -0.2684083408562346, -2.4702958450131973, -6.1939129402839574
369557, 1.2956832647323608, -1.7305364608764648, -9.803746223449707, -0.027963094413280487, 0.02043318748474121, 1.0008187294006348, 0.0628814697265625, 9362.0, 28835.0, 32767.0, 9362.0, 0.0, 7.9537200927734375, -2.373116970062256, -1.5466768741607666, 0.10140670090913773, -0.07050745076041881, -1.557872774245709, -6.237032201618085
369567, 1.2960734367370605, -1.732003092765808, -9.803617477416992, -0.028086937963962555, 0.023657195270061493, 1.0018047094345093, 0.0628814697265625, 9362.0, 28835.0, 32767.0, 9362.0, 0.0, 7.9537200927734375, -2.3731191158294678, -1.5466948747634888, 0.10144169628620148, -0.053244970640798736, -1.5615902049737826, -6.229491031823457
369577, 1.2953884601593018, -1.7325575351715088, -9.805497169494629, -0.028407370671629906, 0.023180458694696426, 1.0008692741394043, 0.0628814697265625, 9362.0, 28835.0, 32767.0, 9362.0, 0.0, 7.9537200927734375, -2.3724758625030518, -1.5467842817306519, 0.10256917774677277, -0.20081660531031545, -2.4151754573600215, -6.202308797694796
369587, 1.296043872833252, -1.732016921043396, -9.804978370666504, -0.029738331213593483, 0.02163788489997387, 1.0031356811523438, 0.0820159912109375, 9362.0, 28835.0, 32767.0, 9362.0, 0.0, 7.9537200927734375, -2.3724513053894043, -1.5467374324798584, 0.10257039964199066, -0.2617384633213715, -2.440404169353826, -6.211948547629469
369597, 1.2963200807571411, -1.7316551208496094, -9.806635856628418, -0.027874266728758812, 0.02219248376786709, 1.0007505416870117, 0.0820159912109375, 9362.0, 28835.0, 32767.0, 9362.0, 0.0, 7.9537200927734375, -2.3740487098693848, -1.547060251235962, 0.10080837458372116, 1.0483779390250167, -0.11508190161791276, -5.914089810996453
369607, 1.2950208187103271, -1.7325224876403809, -9.808655738830566, -0.02812884747982025, 0.020532477647066116, 1.0013091564178467, 0.13123321533203125, 9362.0, 28835.0, 32767.0, 9362.0, 0.0, 7.9537200927734375, -2.372438669204712, -1.5467424392700195, 0.10263816267251968, -0.2708792065746789, -2.4774909940067573, -6.2073265415810335
369617, 1.296067476272583, -1.733185052871704, -9.809126853942871, -0.027487602084875107, 0.02116667851805687, 1.0005664825439453, 0.12029266357421875, 9362.0, 28835.0, 32767.0, 9362.0, 0.0, 7.9537200927734375, -2.3724331855773926, -1.5467479228973389, 0.10262592136859894, -0.25005274876137296, -2.464450255390375, -6.201704910922866
369627, 1.297364354133606, -1.7350879907608032, -9.809073448181152, -0.028282329440116882, 0.022863280028104782, 1.0011008977890015, 0.12029266357421875, 9362.0, 28835.0, 32767.0, 9362.0, 0.0, 7.9537200927734375, -2.3724365234375, -1.5467302799224854, 0.10261386632919312, -0.2777894374436831, -2.4801374184629026, -6.21001443311163
369637, 1.2968193292617798, -1.7342171669006348, -9.810344696044922, -0.028440937399864197, 0.02365063689649105, 1.003559947013855, 0.12029266357421875, 9362.0, 28835.0, 32767.0, 9362.0, 0.0, 7.9537200927734375, -2.3731284141540527, -1.5467047691345215, 0.10142906755208969, -0.05211584954314129, -1.576413719850251, -6.24305554623735
369647, 1.2961256504058838, -1.736106514930725, -9.810529708862305, -0.028469543904066086, 0.02189883403480053, 1.003004789352417, 0.07928466796875, 9362.0, 28835.0, 32767.0, 9362.0, 0.0, 7.9537200927734375, -2.3724493980407715, -1.5467619895935059, 0.10258053243160248, -0.24929982713072366, -2.4573865074382297, -6.2018775129367665
369657, 1.2949553728103638, -1.7369747161865234, -9.811022758483887, -0.030990714207291603, 0.02216210961341858, 1.0013068914413452, 0.07928466796875, 9362.0, 28835.0, 32767.0, 9362.0, 0.0, 7.9537200927734375, -2.3731091022491455, -1.5466710329055786, 0.10142698138952255, -0.06639787648208913, -1.5821826066499796, -6.239579499303359
369667, 1.2952885627746582, -1.7375270128250122, -9.811549186706543, -0.02883319929242134, 0.02096124179661274, 1.0012601613998413, 0.15036773681640625, 9362.0, 28835.0, 32767.0, 9362.0, 0.0, 7.9537200927734375, -2.3724365234375, -1.546744704246521, 0.10255889594554901, -0.2364209102883546, -2.4638919097984626, -6.206947829127524
369677, 1.2958743572235107, -1.7375017404556274, -9.812314987182617, -0.026068173348903656, 0.021303124725818634, 1.0013552904129028, 0.15036773681640625, 9362.0, 28835.0, 32767.0, 9362.0, 0.0, 7.9537200927734375, -2.372454881668091, -1.5467802286148071, 0.10260960459709167, -0.23357321586021412, -2.4512302168785993, -6.2024994104313285
369687, 1.2951159477233887, -1.7364423274993896, -9.81399154663086, -0.028213392943143845, 0.022357195615768433, 1.0006731748580933, 0.13396453857421875, 9362.0, 28835.0, 32767.0, 9362.0, 0.0, 7.9537200927734375, -2.3724441528320312, -1.546755075454712, 0.10259608924388885, -0.25154865455996667, -2.4565457405334428, -6.202314505191516
369697, 1.2939449548721313, -1.7377605438232422, -9.814529418945312, -0.028438275679945946, 0.02383655309677124, 1.001799464225769, 0.13396453857421875, 9362.0, 28835.0, 32767.0, 9362.0, 0.0, 7.9537200927734375, -2.372466802597046, -1.5467369556427002, 0.10255114734172821, -0.25135778793669733, -2.4034478038697955, -6.228639906206716
369707, 1.2925795316696167, -1.7371044158935547, -9.81443977355957, -0.02975493296980858, 0.02095808833837509, 1.0002930164337158, 0.13669586181640625, 9362.0, 28835.0, 32767.0, 9362.0, 0.0, 7.9537200927734375, -2.372469186782837, -1.5467467308044434, 0.10258539021015167, -0.25721238702403, -2.4527277829032528, -6.215088648322423
369717, 1.2911527156829834, -1.7366597652435303, -9.815373420715332, -0.030803564935922623, 0.019404523074626923, 1.0001581907272339, 0.13669586181640625, 9362.0, 28835.0, 32767.0, 9362.0, 0.0, 7.9537200927734375, -2.3724658489227295, -1.5467820167541504, 0.10255862027406693, -0.2212701421406301, -2.428727191087148, -6.221746505609636
369727, 1.2909835577011108, -1.7383718490600586, -9.81744384765625, -0.030051875859498978, 0.02123751863837242, 1.0002893209457397, 0.1695098876953125, 9362.0, 28835.0, 32767.0, 9362.0, 0.0, 7.9537200927734375, -2.372438907623291, -1.546750783920288, 0.10265842080116272, -0.26759583174725665, -2.4848900702064896, -6.222967488704378
369737, 1.2911489009857178, -1.738240122795105, -9.819137573242188, -0.027525007724761963, 0.02128678746521473, 1.0008714199066162, 0.1695098876953125, 9362.0, 28835.0, 32767.0, 9362.0, 0.0, 7.9537200927734375, -2.372438907623291, -1.546730399131775, 0.10261410474777222, -0.2750123892431411, -2.4689290913063076, -6.215260494878821
369747, 1.291524052619934, -1.738790512084961, -9.822443962097168, -0.027659881860017776, 0.021147102117538452, 1.0005590915679932, 0.26245880126953125, 9362.0, 28835.0, 32767.0, 9362.0, 0.0, 7.9537200927734375, -2.3724446296691895, -1.546763300895691, 0.10263935476541519, -0.2612532680426671, -2.4614068490043053, -6.217921003061736
369757, 1.2907108068466187, -1.738734245300293, -9.823607444763184, -0.027671732008457184, 0.020262418314814568, 1.0009424686431885, 0.26245880126953125, 9362.0, 28835.0, 32767.0, 9362.0, 0.0, 7.9537200927734375, -2.3724448680877686, -1.5467716455459595, 0.1026686429977417, -0.263563688307303, -2.494384309514629, -6.198201439291475
369767, 1.2892669439315796, -1.7416177988052368, -9.823723793029785, -0.027351930737495422, 0.019214782863855362, 1.0011054277420044, 0.298004150390625, 9362.0, 28835.0, 32767.0, 9362.0, 0.0, 7.9537200927734375, -2.37312650680542, -1.5466879606246948, 0.10142689943313599, -0.07710735223609048, -1.5639420981341061, -6.229955160503865
369777, 1.2901153564453125, -1.742700457572937, -9.825884819030762, -0.028653666377067566, 0.02127545140683651, 1.0006017684936523, 0.298004150390625, 9362.0, 28835.0, 32767.0, 9362.0, 0.0, 7.9537200927734375, -2.3724477291107178, -1.5467565059661865, 0.10263979434967041, -0.2727263500200098, -2.474159887866307, -6.198336192265956
369787, 1.2901408672332764, -1.743938684463501, -9.827234268188477, -0.030160322785377502, 0.023234713822603226, 1.0014102458953857, 0.16130828857421875, 9362.0, 28835.0, 32767.0, 9362.0, 0.0, 7.9537200927734375, -2.3724539279937744, -1.5467751026153564, 0.10261061787605286, -0.22033682370615007, -2.4581986069500203, -6.205323439340335
369797, 1.2896965742111206, -1.7439943552017212, -9.828989028930664, -0.026896929368376732, 0.02419731207191944, 0.9981582164764404, 0.16130828857421875, 9362.0, 28835.0, 32767.0, 9362.0, 0.0, 7.9537200927734375, -2.372493028640747, -1.5467393398284912, 0.10259062051773071, -0.24797786499607144, -2.4023068903266562, -6.220547827900675
369807, 1.2896084785461426, -1.7434773445129395, -9.829904556274414, -0.02674499899148941, 0.023963946849107742, 1.000003695487976, 0.13123321533203125, 9362.0, 28835.0, 32767.0, 9362.0, 0.0, 7.9537200927734375, -2.3724474906921387, -1.546767234802246, 0.10257779061794281, -0.23664864386720538, -2.4461697263657527, -6.217696552052258
369817, 1.2902278900146484, -1.743163824081421, -9.830526351928711, -0.02711654268205166, 0.0205580722540617, 1.0019326210021973, 0.13123321533203125, 9362.0, 28835.0, 32767.0, 9362.0, 0.0, 7.9537200927734375, -2.372474193572998, -1.5467617511749268, 0.10255888849496841, -0.21673218505981112, -2.4315239090709326, -6.209327744021231
369827, 1.2894960641860962, -1.7445061206817627, -9.830710411071777, -0.028060652315616608, 0.021858584135770798, 1.0002117156982422, 0.13396453857421875, 9362.0, 28835.0, 32767.0, 9362.0, 0.0, 7.9537200927734375, -2.373117685317993, -1.5466923713684082, 0.10143817961215973, -0.0593233221748316, -1.581319600572158, -6.2384760803057695
369837, 1.289703130722046, -1.7453488111495972, -9.831544876098633, -0.027695070952177048, 0.024399684742093086, 1.0014357566833496, 0.13396453857421875, 9362.0, 28835.0, 32767.0, 9362.0, 0.0, 7.9537200927734375, -2.37248158454895, -1.5467716455459595, 0.10258753597736359, -0.21747709134374774, -2.421788113334685, -6.20972327284726
369847, 1.2917793989181519, -1.7470897436141968, -9.831600189208984, -0.02783958986401558, 0.02215384878218174, 1.002384066581726, 0.14763641357421875, 9362.0, 28835.0, 32767.0, 9362.0, 0.0, 7.9537200927734375, -2.373126745223999, -1.5466870069503784, 0.10141940414905548, -0.05740393285710524, -1.5739178303950894, -6.226147028387592
369857, 1.2904553413391113, -1.7458170652389526, -9.830963134765625, -0.027602072805166245, 0.021159619092941284, 1.001564383506775, 0.14763641357421875, 9362.0, 28835.0, 32767.0, 9362.0, 0.0, 7.9537200927734375, -2.372450113296509, -1.5467509031295776, 0.10259003937244415, -0.24236868547712034, -2.4623185785112014, -6.21431342222354
369867, 1.2904574871063232, -1.7483562231063843, -9.832000732421875, -0.028404029086232185, 0.02249079756438732, 1.0023266077041626, 0.1886444091796875, 9362.0, 28835.0, 32767.0, 9362.0, 0.0, 7.9537200927734375, -2.3731253147125244, -1.5467084646224976, 0.10141722857952118, -0.028330559994045296, -1.591280075989829, -6.24634706891418
369877, 1.2900786399841309, -1.7484612464904785, -9.831548690795898, -0.025955505669116974, 0.02202233113348484, 1.0011417865753174, 0.1886444091796875, 9362.0, 28835.0, 32767.0, 9362.0, 0.0, 7.9537200927734375, -2.372465133666992, -1.5467636585235596, 0.10256162285804749, -0.23166136109382174, -2.43461606935918, -6.234934349205154
369887, 1.2888816595077515, -1.748382806777954, -9.831560134887695, -0.027708252891898155, 0.021716075018048286, 0.9999369978904724, 0.27339935302734375, 9362.0, 28835.0, 32767.0, 9362.0, 0.0, 7.9537200927734375, -2.37245774269104, -1.5467818975448608, 0.1026231199502945, -0.22264593964199805, -2.447884481215567, -6.205816475847322
369897, 1.289183259010315, -1.7472379207611084, -9.832267761230469, -0.027387456968426704, 0.021839987486600876, 1.0002720355987549, 0.27339935302734375, 9362.0, 28835.0, 32767.0, 9362.0, 0.0, 7.9537200927734375, -2.373112916946411, -1.5466653108596802, 0.10144250094890594, -0.08529195272502657, -1.5984532377639482, -6.239530471855531
369907, 1.288570761680603, -1.7466546297073364, -9.8320951461792, -0.027007004246115685, 0.020778287202119827, 0.9993218183517456, 0.26245880126953125, 9362.0, 28835.0, 32767.0, 9362.0, 0.0, 7.9537200927734375, -2.372438907623291, -1.5467766523361206, 0.10257948189973831, -0.21771311697382079, -2.4523255787171365, -6.195790443644201
369917, 1.2904186248779297, -1.7470390796661377, -9.833395004272461, -0.0281221903860569, 0.022591687738895416, 1.0004521608352661, 0.26245880126953125, 9362.0, 28835.0, 32767.0, 9362.0, 0.0, 7.9537200927734375, -2.373135805130005, -1.5467208623886108, 0.10140951722860336, -0.020758174397355684, -1.5574514692276296, -6.241267330160984
369927, 1.2900289297103882, -1.7461884021759033, -9.833564758300781, -0.028367765247821808, 0.022987596690654755, 1.0002522468566895, 0.27339935302734375, 9362.0, 28835.0, 32767.0, 9362.0, 0.0, 7.9537200927734375, -2.372473955154419, -1.5467629432678223, 0.10257165133953094, -0.22114575866500022, -2.4079166356697783, -6.209139586536172
369937, 1.2900289297103882, -1.7450519800186157, -9.833697319030762, -0.026005323976278305, 0.02173839882016182, 1.0014255046844482, 0.27339935302734375, 9362.0, 28835.0, 32767.0, 9362.0, 0.0, 7.9537200927734375, -2.373103618621826, -1.5466982126235962, 0.10141806304454803, -0.039183425508024734, -1.6140827160984088, -6.2264548587556146
369947, 1.290972352027893, -1.7454285621643066, -9.834940910339355, -0.028558311983942986, 0.021935727447271347, 1.0015851259231567, 0.218719482421875, 9362.0, 28835.0, 32767.0, 9362.0, 0.0, 7.9537200927734375, -2.372450351715088, -1.546773076057434, 0.10258309543132782, -0.2198840713553516, -2.4577487870519406, -6.212498440094965
369957, 1.2914735078811646, -1.746411919593811, -9.835677146911621, -0.0294375941157341, 0.02244541421532631, 1.001845121383667, 0.218719482421875, 9362.0, 28835.0, 32767.0, 9362.0, 0.0, 7.9537200927734375, -2.3731226921081543, -1.5466914176940918, 0.10143829882144928, -0.06878143413149096, -1.579795467902187, -6.243504693906485
369967, 1.2909806966781616, -1.7483800649642944, -9.836833000183105, -0.028597991913557053, 0.021509520709514618, 1.0025016069412231, 0.3007354736328125, 9362.0, 28835.0, 32767.0, 9362.0, 0.0, 7.9537200927734375, -2.372424364089966, -1.546755313873291, 0.10260641574859619, -0.2487323174027063, -2.479797134462757, -6.198610919717868
369977, 1.2902681827545166, -1.7489808797836304, -9.838728904724121, -0.027808750048279762, 0.0234988983720541, 1.000243902206421, 0.3007354736328125, 9362.0, 28835.0, 32767.0, 9362.0, 0.0, 7.9537200927734375, -2.3724560737609863, -1.5467514991760254, 0.10257913172245026, -0.24012740706330588, -2.454167687553678, -6.213407200502725
369987, 1.2896614074707031, -1.7489142417907715, -9.840347290039062, -0.028065182268619537, 0.021883122622966766, 1.0001827478408813, 0.24880218505859375, 9362.0, 28835.0, 32767.0, 9362.0, 0.0, 7.9537200927734375, -2.372483015060425, -1.5467684268951416, 0.10256288945674896, -0.220898656433924, -2.439142756091428, -6.224979050051189
369997, 1.2892059087753296, -1.7468852996826172, -9.842338562011719, -0.030113132670521736, 0.022215871140360832, 0.9995861053466797, 0.24880218505859375, 9362.0, 28835.0, 32767.0, 9362.0, 0.0, 7.9537200927734375, -2.372457981109619, -1.546736240386963, 0.10260337591171265, -0.26915072788111283, -2.4548199303172282, -6.212851052740586
370007, 1.289408802986145, -1.7479989528656006, -9.843354225158691, -0.02928183600306511, 0.022506194189190865, 0.9999141693115234, 0.26519775390625, 9362.0, 28835.0, 32767.0, 9362.0, 0.0, 7.9537200927734375, -2.373135566711426, -1.5467064380645752, 0.10139554738998413, -0.026949992328244094, -1.5570290770947395, -6.240224118843772
370017, 1.2903263568878174, -1.74760103225708, -9.844578742980957, -0.028793247416615486, 0.020829837769269943, 1.0018173456192017, 0.26519775390625, 9362.0, 28835.0, 32767.0, 9362.0, 0.0, 7.9537200927734375, -2.3724453449249268, -1.546779990196228, 0.10258835554122925, -0.2319062240056203, -2.471594109937456, -6.2090391788715955
370027, 1.2908689975738525, -1.7469853162765503, -9.846375465393066, -0.02726474031805992, 0.02102391980588436, 1.001983642578125, 0.17771148681640625, 9362.0, 28835.0, 32767.0, 9362.0, 0.0, 7.9537200927734375, -2.372476577758789, -1.5467751026153564, 0.10255728662014008, -0.21655747829179892, -2.4318295434824506, -6.209124517499491
370037, 1.2902145385742188, -1.745871901512146, -9.847295761108398, -0.02708427794277668, 0.02108209766447544, 1.0023034811019897, 0.17771148681640625, 9362.0, 28835.0, 32767.0, 9362.0, 0.0, 7.9537200927734375, -2.37248158454895, -1.5467711687088013, 0.10253842175006866, -0.2158342917991648, -2.4046483770400755, -6.228158004509124
370047, 1.2908447980880737, -1.7441892623901367, -9.84798526763916, -0.02735278196632862, 0.02210867404937744, 1.0013370513916016, 0.232391357421875, 9362.0, 28835.0, 32767.0, 9362.0, 0.0, 7.9537200927734375, -2.372476577758789, -1.5467389822006226, 0.10258075594902039, -0.25432148699679374, -2.4428300614382863, -6.21964311303197
370057, 1.2906996011734009, -1.743377447128296, -9.850010871887207, -0.026611564680933952, 0.024128422141075134, 1.0002678632736206, 0.232391357421875, 9362.0, 28835.0, 32767.0, 9362.0, 0.0, 7.9537200927734375, -2.3724212646484375, -1.5467573404312134, 0.10268194228410721, -0.2551587256701485, -2.517962933968448, -6.2165336121516885
370067, 1.289494276046753, -1.7432589530944824, -9.851585388183594, -0.026884447783231735, 0.023089613765478134, 1.0009143352508545, 0.25426483154296875, 9362.0, 28835.0, 32767.0, 9362.0, 0.0, 7.9537200927734375, -2.3731305599212646, -1.5466973781585693, 0.10137966275215149, -0.03859100186072374, -1.5713192979017094, -6.23436841000392
370077, 1.289650321006775, -1.7435171604156494, -9.853984832763672, -0.02680288814008236, 0.021371951326727867, 1.0004231929779053, 0.25426483154296875, 9362.0, 28835.0, 32767.0, 9362.0, 0.0, 7.9537200927734375, -2.3724687099456787, -1.5467665195465088, 0.10257309675216675, -0.224692019707887, -2.4545794848650644, -6.219809187094965
370087, 1.2897145748138428, -1.7431954145431519, -9.853859901428223, -0.028577402234077454, 0.0219210647046566, 0.9991036653518677, 0.26793670654296875, 9362.0, 28835.0, 32767.0, 9362.0, 0.0, 7.9537200927734375, -2.372453212738037, -1.5467766523361206, 0.10258372128009796, -0.22593379729599247, -2.452419626005536, -6.222677019397423
370097, 1.2889797687530518, -1.7448787689208984, -9.85382080078125, -0.029627865180373192, 0.021648608148097992, 1.001383662223816, 0.26793670654296875, 9362.0, 28835.0, 32767.0, 9362.0, 0.0, 7.9537200927734375, -2.3724570274353027, -1.5467770099639893, 0.10260197520256042, -0.21238413565262837, -2.4774021621701934, -6.206783964197026
370107, 1.2884143590927124, -1.7472044229507446, -9.855535507202148, -0.028907474130392075, 0.019231047481298447, 1.0010104179382324, 0.27066802978515625, 9362.0, 28835.0, 32767.0, 9362.0, 0.0, 7.9537200927734375, -2.3724875450134277, -1.5467489957809448, 0.10258175432682037, -0.22504270854577066, -2.417559890162778, -6.218145080154379
370117, 1.2889171838760376, -1.7480238676071167, -9.856133460998535, -0.026103345677256584, 0.022432709112763405, 1.0016450881958008, 0.27066802978515625, 9362.0, 28835.0, 32767.0, 9362.0, 0.0, 7.9537200927734375, -2.3731420040130615, -1.546718955039978, 0.10139041393995285, -0.028502997386717483, -1.568527649996014, -6.240606756589158
370127, 1.2887635231018066, -1.7439838647842407, -9.856844902038574, -0.026916569098830223, 0.022830113768577576, 1.0022552013397217, 0.25699615478515625, 9362.0, 28835.0, 32767.0, 9362.0, 0.0, 7.9537200927734375, -2.3724205493927, -1.5467931032180786, 0.10267852246761322, -0.22786461526910096, -2.522272692051729, -6.198337893375116
370137, 1.2899218797683716, -1.7449631690979004, -9.857524871826172, -0.027112305164337158, 0.022037439048290253, 1.0017006397247314, 0.25699615478515625, 9362.0, 28835.0, 32767.0, 9362.0, 0.0, 7.9537200927734375, -2.3731420040130615, -1.546702265739441, 0.10142365843057632, -0.020199316196013395, -1.568807323863524, -6.252611302869501
370147, 1.2882989645004272, -1.7458043098449707, -9.857637405395508, -0.028316503390669823, 0.021353431046009064, 1.0025622844696045, 0.1695098876953125, 9362.0, 28835.0, 32767.0, 9362.0, 0.0, 7.9537200927734375, -2.372462749481201, -1.5467625856399536, 0.10256894677877426, -0.2286670328542473, -2.421180224573135, -6.2314209513799055
370157, 1.2891347408294678, -1.7448599338531494, -9.858043670654297, -0.02813206985592842, 0.02102905511856079, 1.004382848739624, 0.1695098876953125, 9362.0, 28835.0, 32767.0, 9362.0, 0.0, 7.9537200927734375, -2.3724894523620605, -1.5467653274536133, 0.10258227586746216, -0.2296408502773798, -2.4135829119377377, -6.214075745094897
370167, 1.288330078125, -1.7447690963745117, -9.859672546386719, -0.028479624539613724, 0.020557990297675133, 1.0021097660064697, 0.1722412109375, 9362.0, 28835.0, 32767.0, 9362.0, 0.0, 7.9537200927734375, -2.3724703788757324, -1.5467723608016968, 0.10262465476989746, -0.23467277166997041, -2.450843293872481, -6.213456851420797
370177, 1.2885844707489014, -1.7458164691925049, -9.85970401763916, -0.02661440335214138, 0.020481813699007034, 1.0002824068069458, 0.1722412109375, 9362.0, 28835.0, 32767.0, 9362.0, 0.0, 7.9537200927734375, -2.372448444366455, -1.5467571020126343, 0.10259222984313965, -0.2358731370116589, -2.471648772593028, -6.2120913176448935
370187, 1.288403034210205, -1.7470000982284546, -9.860817909240723, -0.02715727873146534, 0.02373325824737549, 0.999765932559967, 0.1968536376953125, 9362.0, 28835.0, 32767.0, 9362.0, 0.0, 7.9537200927734375, -2.3724496364593506, -1.5467420816421509, 0.10263395309448242, -0.274023538073425, -2.4662424863133765, -6.209812055811926
370197, 1.2891563177108765, -1.7463200092315674, -9.859426498413086, -0.029499601572752, 0.024298258125782013, 1.001579999923706, 0.1968536376953125, 9362.0, 28835.0, 32767.0, 9362.0, 0.0, 7.9537200927734375, -2.3731391429901123, -1.5467103719711304, 0.10140220820903778, -0.035246330051759714, -1.57854217567359, -6.239332436384728
370207, 1.2902323007583618, -1.748665690422058, -9.858592987060547, -0.030025413259863853, 0.022911157459020615, 1.0012861490249634, 0.06835174560546875, 9362.0, 28835.0, 32767.0, 9362.0, 0.0, 7.9537200927734375, -2.3724513053894043, -1.5467513799667358, 0.10259109735488892, -0.246354050846775, -2.4447942877650632, -6.21978941018305
370217, 1.289924144744873, -1.747631549835205, -9.858120918273926, -0.03017360344529152, 0.021981459110975266, 1.0009691715240479, 0.06835174560546875, 9362.0, 28835.0, 32767.0, 9362.0, 0.0, 7.9537200927734375, -2.3724582195281982, -1.5467580556869507, 0.10260820388793945, -0.23083871349840823, -2.4591905387736688, -6.201973199979361
370227, 1.2899169921875, -1.7485976219177246, -9.860268592834473, -0.029485825449228287, 0.022369209676980972, 1.0017499923706055, 0.1093597412109375, 9362.0, 28835.0, 32767.0, 9362.0, 0.0, 7.9537200927734375, -2.3724708557128906, -1.5467573404312134, 0.10257341712713242, -0.24033677304826634, -2.415308644674411, -6.214480496663628
370237, 1.2917349338531494, -1.7489534616470337, -9.858939170837402, -0.026483550667762756, 0.022681262344121933, 1.002161979675293, 0.1093597412109375, 9362.0, 28835.0, 32767.0, 9362.0, 0.0, 7.9537200927734375, -2.3724727630615234, -1.546754002571106, 0.1025363951921463, -0.21176797691847737, -2.4294405814681284, -6.2150448633734605
370247, 1.2918956279754639, -1.7492880821228027, -9.860379219055176, -0.026859784498810768, 0.022167515009641647, 1.0015486478805542, 0.09295654296875, 9362.0, 28835.0, 32767.0, 9362.0, 0.0, 7.9537200927734375, -2.3724772930145264, -1.5467449426651, 0.10257633030414581, -0.22864330092766283, -2.4295654583162616, -6.219574996201603
370257, 1.2913728952407837, -1.7496371269226074, -9.861307144165039, -0.027725011110305786, 0.0219351127743721, 1.00099515914917, 0.09295654296875, 9362.0, 28835.0, 32767.0, 9362.0, 0.0, 7.9537200927734375, -2.37312388420105, -1.546707272529602, 0.10142835974693298, -0.028448671775231027, -1.5779375272413176, -6.244828187132579
370267, 1.2905662059783936, -1.74934720993042, -9.86327838897705, -0.02719944342970848, 0.02126442641019821, 1.0025532245635986, 0.1695098876953125, 9362.0, 28835.0, 32767.0, 9362.0, 0.0, 7.9537200927734375, -2.3724730014801025, -1.5467661619186401, 0.10256410390138626, -0.22705248022607458, -2.4482603541362664, -6.214187305748664
370277, 1.2904083728790283, -1.7474629878997803, -9.864272117614746, -0.024140842258930206, 0.02155768871307373, 1.0006978511810303, 0.1695098876953125, 9362.0, 28835.0, 32767.0, 9362.0, 0.0, 7.9537200927734375, -2.3731186389923096, -1.5466935634613037, 0.10142655670642853, -0.055098225914867044, -1.580379359014188, -6.2511610893385345
370287, 1.290433406829834, -1.7485636472702026, -9.865656852722168, -0.024915847927331924, 0.02208421751856804, 0.99907386302948, 0.1148223876953125, 9362.0, 28835.0, 32767.0, 9362.0, 0.0, 7.9537200927734375, -2.372427463531494, -1.5467414855957031, 0.1026034876704216, -0.24673616418097644, -2.475934460619186, -6.206343247877853
370297, 1.2899863719940186, -1.7480288743972778, -9.867051124572754, -0.027802741155028343, 0.022114355117082596, 1.0016167163848877, 0.1148223876953125, 9362.0, 28835.0, 32767.0, 9362.0, 0.0, 7.9537200927734375, -2.3724658489227295, -1.5467417240142822, 0.10256746411323547, -0.24720552117849473, -2.4249274956878253, -6.215790657486988
370307, 1.2892924547195435, -1.7467172145843506, -9.867406845092773, -0.026898503303527832, 0.02252563275396824, 1.000571370124817, 0.00820159912109375, 9362.0, 28835.0, 32767.0, 9362.0, 0.0, 7.9537200927734375, -2.372447967529297, -1.5467537641525269, 0.10258857905864716, -0.23956766484597877, -2.4616657252893788, -6.20176304648305
370317, 1.2905209064483643, -1.7461634874343872, -9.866706848144531, -0.0262372437864542, 0.02265036106109619, 1.0001323223114014, 0.00820159912109375, 9362.0, 28835.0, 32767.0, 9362.0, 0.0, 7.9537200927734375, -2.3731400966644287, -1.546707272529602, 0.1013818308711052, -0.053584542406649754, -1.5318934053828457, -6.231117519690738
370327, 1.2899824380874634, -1.7466050386428833, -9.869322776794434, -0.025990968570113182, 0.022353598847985268, 1.001651644706726, -0.1175689697265625, 9362.0, 28835.0, 32767.0, 9362.0, 0.0, 7.9537200927734375, -2.3724353313446045, -1.546766996383667, 0.1025979146361351, -0.23019620700267768, -2.4729650323173473, -6.206665648918232
370337, 1.2900750637054443, -1.7464959621429443, -9.869227409362793, -0.02728019654750824, 0.021161042153835297, 1.001996397972107, -0.1175689697265625, 9362.0, 28835.0, 32767.0, 9362.0, 0.0, 7.9537200927734375, -2.3724372386932373, -1.5467824935913086, 0.102598175406456, -0.21870302953108356, -2.476438640189542, -6.200315473893733
370347, 1.2889442443847656, -1.747024416923523, -9.869404792785645, -0.028582945466041565, 0.02105032466351986, 1.001244306564331, -0.0109405517578125, 9362.0, 28835.0, 32767.0, 9362.0, 0.0, 7.9537200927734375, -2.372462034225464, -1.546744704246521, 0.10259047150611877, -0.256700215997637, -2.4411399856711, -6.21589054116134
370357, 1.288670301437378, -1.745550274848938, -9.870447158813477, -0.027202719822525978, 0.02206834964454174, 1.0025120973587036, -0.0109405517578125, 9362.0, 28835.0, 32767.0, 9362.0, 0.0, 7.9537200927734375, -2.3724365234375, -1.5467414855957031, 0.10260671377182007, -0.26235571341226505, -2.4837051874648353, -6.205890773982863
370367, 1.2881454229354858, -1.7447842359542847, -9.870927810668945, -0.027285726740956306, 0.021151365712285042, 1.0006927251815796, 0.07928466796875, 9362.0, 28835.0, 32767.0, 9362.0, 0.0, 7.9537200927734375, -2.372424364089966, -1.54678213596344, 0.1026366651058197, -0.23190754188423532, -2.4983283194725345, -6.208611138123366
370377, 1.2876278162002563, -1.7447550296783447, -9.87123966217041, -0.02789936400949955, 0.020974941551685333, 0.998650848865509, 0.07928466796875, 9362.0, 28835.0, 32767.0, 9362.0, 0.0, 7.9537200927734375, -2.3724372386932373, -1.5467851161956787, 0.10264082998037338, -0.23106401008793384, -2.4792654461995483, -6.201808449685844
370387, 1.2877256870269775, -1.7460033893585205, -9.872739791870117, -0.027690958231687546, 0.021372785791754723, 1.0002179145812988, 0.03554534912109375, 9362.0, 28835.0, 32767.0, 9362.0, 0.0, 7.9537200927734375, -2.3724799156188965, -1.5467517375946045, 0.102571502327919, -0.23743633378064066, -2.427797376756388, -6.209912769591092
370397, 1.2881731986999512, -1.744307518005371, -9.873103141784668, -0.02711770310997963, 0.022384148091077805, 0.9992879629135132, 0.03554534912109375, 9362.0, 28835.0, 32767.0, 9362.0, 0.0, 7.9537200927734375, -2.3724591732025146, -1.5467896461486816, 0.10259835422039032, -0.2090517632932064, -2.4467572857210484, -6.214651460073968
370407, 1.2896149158477783, -1.7466388940811157, -9.873703002929688, -0.02645237185060978, 0.02498936839401722, 1.0006755590438843, 0.08475494384765625, 9362.0, 28835.0, 32767.0, 9362.0, 0.0, 7.9537200927734375, -2.3731820583343506, -1.5467079877853394, 0.10153384506702423, 0.06605468137864716, -1.680296401561833, -6.236193051854411
370417, 1.2902653217315674, -1.748302698135376, -9.874592781066895, -0.028479082509875298, 0.023538164794445038, 1.0014272928237915, 0.08475494384765625, 9362.0, 28835.0, 32767.0, 9362.0, 0.0, 7.9537200927734375, -2.372450590133667, -1.5467625856399536, 0.10257397592067719, -0.2126300937683397, -2.4685873602539914, -6.203213754157069
370427, 1.2895119190216064, -1.7495191097259521, -9.87549877166748, -0.028828633949160576, 0.022197892889380455, 1.0020400285720825, 0.08475494384765625, 9362.0, 28835.0, 32767.0, 9362.0, 0.0, 7.9537200927734375, -2.372443437576294, -1.5467537641525269, 0.10260870307683945, -0.24192142871322286, -2.47289305476761, -6.203533728252305
370437, 1.2896203994750977, -1.750670075416565, -9.876616477966309, -0.02742868661880493, 0.021134406328201294, 1.0008209943771362, 0.08475494384765625, 9362.0, 28835.0, 32767.0, 9362.0, 0.0, 7.9537200927734375, -2.372445821762085, -1.5467878580093384, 0.10259313136339188, -0.222977041389353, -2.4498723536725038, -6.203544433191368
370447, 1.289607048034668, -1.753024935722351, -9.878655433654785, -0.02677805721759796, 0.020945802330970764, 1.001292109489441, 0.05194854736328125, 9362.0, 28835.0, 32767.0, 9362.0, 0.0, 7.9537200927734375, -2.3731184005737305, -1.5466740131378174, 0.10142330080270767, -0.07205423569107701, -1.586339002846671, -6.242826238158269
370457, 1.2892132997512817, -1.753620982170105, -9.879599571228027, -0.02786978706717491, 0.02313915453851223, 1.001729965209961, 0.05194854736328125, 9362.0, 28835.0, 32767.0, 9362.0, 0.0, 7.9537200927734375, -2.3731279373168945, -1.5466840267181396, 0.10139702260494232, -0.045981888092707, -1.5543696086319017, -6.226709358951291
370467, 1.2899439334869385, -1.754141092300415, -9.880037307739258, -0.029855243861675262, 0.021653056144714355, 1.0031102895736694, 0.08475494384765625, 9362.0, 28835.0, 32767.0, 9362.0, 0.0, 7.9537200927734375, -2.3731465339660645, -1.54669988155365, 0.1013735681772232, -0.029211109591656747, -1.550831934397877, -6.2317894238656
370477, 1.289170742034912, -1.7548726797103882, -9.881263732910156, -0.026468241587281227, 0.020366182550787926, 1.0026512145996094, 0.08475494384765625, 9362.0, 28835.0, 32767.0, 9362.0, 0.0, 7.9537200927734375, -2.3724513053894043, -1.5467802286148071, 0.1025945395231247, -0.21944441384206864, -2.46517343148156, -6.21263513530212
370487, 1.2886476516723633, -1.75477933883667, -9.882967948913574, -0.026060771197080612, 0.02094370126724243, 1.0020380020141602, 0.139434814453125, 9362.0, 28835.0, 32767.0, 9362.0, 0.0, 7.9537200927734375, -2.372464179992676, -1.5467681884765625, 0.10257665812969208, -0.235623539599397, -2.445317687674219, -6.220226698856994
370497, 1.2883797883987427, -1.7552213668823242, -9.884275436401367, -0.025195833295583725, 0.020636633038520813, 0.9994012117385864, 0.139434814453125, 9362.0, 28835.0, 32767.0, 9362.0, 0.0, 7.9537200927734375, -2.3724496364593506, -1.5467534065246582, 0.10262167453765869, -0.24660964312315817, -2.4696521511900755, -6.209686426537901
370507, 1.2872025966644287, -1.7553445100784302, -9.885628700256348, -0.026449918746948242, 0.021306008100509644, 1.000409722328186, 0.1695098876953125, 9362.0, 28835.0, 32767.0, 9362.0, 0.0, 7.9537200927734375, -2.372443199157715, -1.5467666387557983, 0.10258853435516357, -0.22757144107046212, -2.4621265026207197, -6.215287922485578
370517, 1.2867000102996826, -1.7564334869384766, -9.887480735778809, -0.02747323364019394, 0.022076651453971863, 1.0019779205322266, 0.1695098876953125, 9362.0, 28835.0, 32767.0, 9362.0, 0.0, 7.9537200927734375, -2.3724417686462402, -1.5467404127120972, 0.10258758068084717, -0.26834824614296643, -2.459602017417609, -6.209835947388759
370527, 1.2855583429336548, -1.7551591396331787, -9.888904571533203, -0.027378542348742485, 0.02224445715546608, 1.001887559890747, 0.16130828857421875, 9362.0, 28835.0, 32767.0, 9362.0, 0.0, 7.9537200927734375, -2.373136520385742, -1.546717882156372, 0.10139051079750061, -0.0229999767204394, -1.549353542848479, -6.2415640817480655
370537, 1.2852786779403687, -1.7562381029129028, -9.889583587646484, -0.026130441576242447, 0.022558752447366714, 1.0005998611450195, 0.16130828857421875, 9362.0, 28835.0, 32767.0, 9362.0, 0.0, 7.9537200927734375, -2.3724365234375, -1.5467722415924072, 0.10259774327278137, -0.22850570528327369, -2.465179274463935, -6.202563074141614
370547, 1.286318302154541, -1.7562839984893799, -9.89021110534668, -0.026342786848545074, 0.022589806467294693, 1.0025880336761475, 0.15309906005859375, 9362.0, 28835.0, 32767.0, 9362.0, 0.0, 7.9537200927734375, -2.3731274604797363, -1.5467125177383423, 0.1013946607708931, -0.025530020145629224, -1.5631288267229309, -6.228500909389004
370557, 1.287182331085205, -1.7567507028579712, -9.891531944274902, -0.0295427069067955, 0.02327888086438179, 0.9996218681335449, 0.15309906005859375, 9362.0, 28835.0, 32767.0, 9362.0, 0.0, 7.9537200927734375, -2.3724634647369385, -1.546758770942688, 0.10254848748445511, -0.22909764295870452, -2.4321135723484133, -6.218895894601586
370567, 1.2879916429519653, -1.7566618919372559, -9.892203330993652, -0.030485425144433975, 0.023355066776275635, 0.9996967911720276, 0.2023162841796875, 9362.0, 28835.0, 32767.0, 9362.0, 0.0, 7.9537200927734375, -2.373102903366089, -1.5467008352279663, 0.10140897333621979, -0.0491163654745334, -1.5868998248923276, -6.239820354020459
370577, 1.287157416343689, -1.7568429708480835, -9.893739700317383, -0.027192022651433945, 0.02217530459165573, 1.0002738237380981, 0.2023162841796875, 9362.0, 28835.0, 32767.0, 9362.0, 0.0, 7.9537200927734375, -2.372448205947876, -1.5467675924301147, 0.10259577631950378, -0.22873974236886957, -2.4689993497402725, -6.21159047741246
370587, 1.286806344985962, -1.7561564445495605, -9.896324157714844, -0.027236292138695717, 0.022809239104390144, 1.0016900300979614, 0.22965240478515625, 9362.0, 28835.0, 32767.0, 9362.0, 0.0, 7.9537200927734375, -2.373129367828369, -1.5466963052749634, 0.10138983279466629, -0.03923441132687513, -1.5688857486300662, -6.241538564764123
370597, 1.2871373891830444, -1.7565985918045044, -9.896870613098145, -0.02588154561817646, 0.023109331727027893, 0.9999616146087646, 0.22965240478515625, 9362.0, 28835.0, 32767.0, 9362.0, 0.0, 7.9537200927734375, -2.3724536895751953, -1.546775460243225, 0.10260128974914551, -0.22300897738524028, -2.4637909357956858, -6.205159554046245
370607, 1.2860674858093262, -1.757192850112915, -9.898805618286133, -0.026952221989631653, 0.019870325922966003, 0.9995278716087341, 0.22692108154296875, 9362.0, 28835.0, 32767.0, 9362.0, 0.0, 7.9537200927734375, -2.3724799156188965, -1.546775221824646, 0.10256506502628326, -0.22369904906822835, -2.4316754167938655, -6.2131538857179525
370617, 1.284967303276062, -1.7565875053405762, -9.899426460266113, -0.027928313240408897, 0.021237943321466446, 1.0003767013549805, 0.22692108154296875, 9362.0, 28835.0, 32767.0, 9362.0, 0.0, 7.9537200927734375, -2.3724472522735596, -1.5467727184295654, 0.102619469165802, -0.22837502239764598, -2.4805090710521824, -6.207960320444136
370627, 1.2859530448913574, -1.7565174102783203, -9.900964736938477, -0.02693638578057289, 0.022635269910097122, 1.0010042190551758, 0.2159881591796875, 9362.0, 28835.0, 32767.0, 9362.0, 0.0, 7.9537200927734375, -2.372445583343506, -1.5467643737792969, 0.10256113111972809, -0.229786383132022, -2.4352020808415205, -6.203108475669265
370637, 1.2876484394073486, -1.757257103919983, -9.901430130004883, -0.02741171605885029, 0.023852810263633728, 1.0002127885818481, 0.2159881591796875, 9362.0, 28835.0, 32767.0, 9362.0, 0.0, 7.9537200927734375, -2.3724567890167236, -1.5467445850372314, 0.10258796811103821, -0.2603704524808742, -2.4618998932647003, -6.205820977339159
370647, 1.2876466512680054, -1.756686806678772, -9.901911735534668, -0.02888677641749382, 0.022751646116375923, 1.0012149810791016, 0.29254150390625, 9362.0, 28835.0, 32767.0, 9362.0, 0.0, 7.9537200927734375, -2.3724350929260254, -1.5467621088027954, 0.10262010991573334, -0.26312151553767116, -2.48457376059514, -6.211163774005396
370657, 1.2881311178207397, -1.7582319974899292, -9.902889251708984, -0.030012521892786026, 0.02211376652121544, 1.0021806955337524, 0.29254150390625, 9362.0, 28835.0, 32767.0, 9362.0, 0.0, 7.9537200927734375, -2.3724143505096436, -1.546746850013733, 0.10265173017978668, -0.27803333100521016, -2.5093101082864564, -6.205698218372928
370667, 1.2879194021224976, -1.7567378282546997, -9.903313636779785, -0.029026640579104424, 0.02213004045188427, 1.0015785694122314, 0.26245880126953125, 9362.0, 28835.0, 32767.0, 9362.0, 0.0, 7.9537200927734375, -2.372448205947876, -1.5467745065689087, 0.10258171707391739, -0.22561452239813046, -2.442887491334943, -6.202150710006203
370677, 1.2887181043624878, -1.7557435035705566, -9.903447151184082, -0.028102701529860497, 0.021492496132850647, 1.0020861625671387, 0.26245880126953125, 9362.0, 28835.0, 32767.0, 9362.0, 0.0, 7.9537200927734375, -2.373121976852417, -1.5466951131820679, 0.101387619972229, -0.049122253714652335, -1.5851623634094096, -6.22704556824862
370687, 1.2871006727218628, -1.7552423477172852, -9.90434741973877, -0.02778930589556694, 0.021328885108232498, 1.000391960144043, 0.218719482421875, 9362.0, 28835.0, 32767.0, 9362.0, 0.0, 7.9537200927734375, -2.372446060180664, -1.5467675924301147, 0.10258298367261887, -0.2330368280735397, -2.4706449483796007, -6.203867858524017
370697, 1.2865461111068726, -1.754034399986267, -9.90366268157959, -0.025284847244620323, 0.021962128579616547, 1.0014691352844238, 0.218719482421875, 9362.0, 28835.0, 32767.0, 9362.0, 0.0, 7.9537200927734375, -2.3731131553649902, -1.5466731786727905, 0.10142910480499268, -0.07910094520834478, -1.589411369409106, -6.235036156815575
370707, 1.2877088785171509, -1.75380539894104, -9.904200553894043, -0.025019550696015358, 0.02156807668507099, 1.0021384954452515, 0.16403961181640625, 9362.0, 28835.0, 32767.0, 9362.0, 0.0, 7.9537200927734375, -2.372438907623291, -1.546753168106079, 0.1025732010602951, -0.22504709190730138, -2.468743285374842, -6.216774018399111
370717, 1.2886781692504883, -1.753546953201294, -9.904292106628418, -0.026070594787597656, 0.0224606916308403, 1.001769781112671, 0.16403961181640625, 9362.0, 28835.0, 32767.0, 9362.0, 0.0, 7.9537200927734375, -2.373135805130005, -1.5466927289962769, 0.1013869196176529, -0.03836422130887336, -1.5696122580198733, -6.236815590690911
370727, 1.2881191968917847, -1.7551307678222656, -9.90633773803711, -0.02608860470354557, 0.0234504546970129, 1.0000228881835938, 0.098419189453125, 9362.0, 28835.0, 32767.0, 9362.0, 0.0, 7.9537200927734375, -2.3724420070648193, -1.546773076057434, 0.10260066390037537, -0.23319177735966587, -2.4705450614650886, -6.211837147238741
370737, 1.2871493101119995, -1.754145860671997, -9.906497955322266, -0.027955248951911926, 0.021630028262734413, 1.0032371282577515, 0.098419189453125, 9362.0, 28835.0, 32767.0, 9362.0, 0.0, 7.9537200927734375, -2.372436761856079, -1.5467793941497803, 0.10258153080940247, -0.21679360817461138, -2.462308049580969, -6.1935806038619
370747, 1.2876877784729004, -1.7537853717803955, -9.907722473144531, -0.02857501059770584, 0.0215019378811121, 1.0015584230422974, 0.06014251708984375, 9362.0, 28835.0, 32767.0, 9362.0, 0.0, 7.9537200927734375, -2.372447967529297, -1.5467666387557983, 0.10259856283664703, -0.2297086744826507, -2.453353376894114, -6.204773505760752
370757, 1.2873854637145996, -1.7546864748001099, -9.908692359924316, -0.028320517390966415, 0.02192043699324131, 1.0011866092681885, 0.06014251708984375, 9362.0, 28835.0, 32767.0, 9362.0, 0.0, 7.9537200927734375, -2.372476816177368, -1.5467917919158936, 0.10256107896566391, -0.21782756502405998, -2.443940240470681, -6.1942404524275245
370767, 1.2881337404251099, -1.7549090385437012, -9.90925121307373, -0.029449649155139923, 0.01996101438999176, 1.0002079010009766, 0.05467987060546875, 9362.0, 28835.0, 32767.0, 9362.0, 0.0, 7.9537200927734375, -2.3724610805511475, -1.5467764139175415, 0.10258015990257263, -0.2100595610178003, -2.453650706004993, -6.206737155190709
370777, 1.2878397703170776, -1.754711389541626, -9.910053253173828, -0.027519136667251587, 0.02140698954463005, 0.9997552037239075, 0.05467987060546875, 9362.0, 28835.0, 32767.0, 9362.0, 0.0, 7.9537200927734375, -2.373131275177002, -1.5467065572738647, 0.10141640901565552, -0.020271346637696155, -1.5522090412881084, -6.236480096204
370787, 1.2870540618896484, -1.7537600994110107, -9.910795211791992, -0.026177648454904556, 0.020541060715913773, 1.0003578662872314, 0.08475494384765625, 9362.0, 28835.0, 32767.0, 9362.0, 0.0, 7.9537200927734375, -2.372457504272461, -1.5467631816864014, 0.10259222984313965, -0.23687748686112325, -2.442530282378442, -6.208604528254015
370797, 1.2866344451904297, -1.7552242279052734, -9.911619186401367, -0.025341227650642395, 0.021500516682863235, 1.0012211799621582, 0.08475494384765625, 9362.0, 28835.0, 32767.0, 9362.0, 0.0, 7.9537200927734375, -2.372452974319458, -1.5467557907104492, 0.10255704075098038, -0.24153827020704152, -2.449610853264403, -6.206147120028456
370807, 1.2875579595565796, -1.756363868713379, -9.912817001342773, -0.02550888992846012, 0.022354770451784134, 1.000716209411621, 0.08475494384765625, 9362.0, 28835.0, 32767.0, 9362.0, 0.0, 7.9537200927734375, -2.3724265098571777, -1.5467652082443237, 0.10257966816425323, -0.2465296744354273, -2.46715381433134, -6.208326776427433
370817, 1.2863266468048096, -1.7552393674850464, -9.914361000061035, -0.02701016142964363, 0.022611472755670547, 0.9998114109039307, 0.08475494384765625, 9362.0, 28835.0, 32767.0, 9362.0, 0.0, 7.9537200927734375, -2.372441053390503, -1.5467458963394165, 0.1025930866599083, -0.24840018574646874, -2.462998256040663, -6.199244415819379
370827, 1.2875150442123413, -1.7562719583511353, -9.915974617004395, -0.027721280232071877, 0.02308976650238037, 0.9998286962509155, 0.07381439208984375, 9362.0, 28835.0, 32767.0, 9362.0, 0.0, 7.9537200927734375, -2.3724210262298584, -1.5467674732208252, 0.10265231132507324, -0.2502409638276388, -2.491934019003935, -6.1980228386936576
370837, 1.2881293296813965, -1.7573907375335693, -9.917010307312012, -0.028039705008268356, 0.02278011664748192, 0.9992470145225525, 0.07381439208984375, 9362.0, 28835.0, 32767.0, 9362.0, 0.0, 7.9537200927734375, -2.373117208480835, -1.546712875366211, 0.10139133036136627, -0.013890660880986559, -1.5653159284990465, -6.2271580254975225
370847, 1.2881619930267334, -1.7570366859436035, -9.9172945022583, -0.02910727448761463, 0.0230875201523304, 0.9992331266403198, 0.1093597412109375, 9362.0, 28835.0, 32767.0, 9362.0, 0.0, 7.9537200927734375, -2.372446298599243, -1.546768307685852, 0.10262648016214371, -0.22893141436143397, -2.483829794768326, -6.203192217618596
370857, 1.2883716821670532, -1.7575289011001587, -9.91716194152832, -0.026688113808631897, 0.021256474778056145, 1.0005958080291748, 0.1093597412109375, 9362.0, 28835.0, 32767.0, 9362.0, 0.0, 7.9537200927734375, -2.3724589347839355, -1.5467900037765503, 0.10263341665267944, -0.22414868442572902, -2.4591153977599163, -6.205581036747237
370867, 1.2880266904830933, -1.7566889524459839, -9.918463706970215, -0.027206147089600563, 0.02173314429819584, 1.0023305416107178, 0.13396453857421875, 9362.0, 28835.0, 32767.0, 9362.0, 0.0, 7.9537200927734375, -2.373142719268799, -1.5466896295547485, 0.101397804915905, -0.03591083445291772, -1.5543834253166438, -6.2311245287700485
370877, 1.2874171733856201, -1.7588320970535278, -9.920156478881836, -0.028232978656888008, 0.023001519963145256, 0.9987311959266663, 0.13396453857421875, 9362.0, 28835.0, 32767.0, 9362.0, 0.0, 7.9537200927734375, -2.3724405765533447, -1.5467675924301147, 0.10258950293064117, -0.25064307407103714, -2.4718364254302116, -6.197274494852972
370887, 1.2883882522583008, -1.7589091062545776, -9.9190034866333, -0.02739759534597397, 0.022532394155859947, 0.9999263286590576, 0.17771148681640625, 9362.0, 28835.0, 32767.0, 9362.0, 0.0, 7.9537200927734375, -2.3724217414855957, -1.5467783212661743, 0.10262490808963776, -0.2497186465956182, -2.500516887336346, -6.194817586338661
370897, 1.2879616022109985, -1.756102204322815, -9.919694900512695, -0.025883419439196587, 0.022717483341693878, 1.0013524293899536, 0.17771148681640625, 9362.0, 28835.0, 32767.0, 9362.0, 0.0, 7.9537200927734375, -2.372452735900879, -1.5467571020126343, 0.102629154920578, -0.24408288090642008, -2.468781562782482, -6.199467508820404
370907, 1.2872072458267212, -1.7550525665283203, -9.919732093811035, -0.025462009012699127, 0.020291438326239586, 1.0013418197631836, 0.25699615478515625, 9362.0, 28835.0, 32767.0, 9362.0, 0.0, 7.9537200927734375, -2.3731250762939453, -1.546692967414856, 0.10140261799097061, -0.039423101207654715, -1.593591916110455, -6.245763266593555
370919, 1.2884278297424316, -1.754888653755188, -9.921250343322754, -0.026335861533880234, 0.021252278238534927, 1.0008454322814941, 0.25699615478515625, 9362.0, 28835.0, 32767.0, 9362.0, 0.0, 7.9537200927734375, -2.373110055923462, -1.5467274188995361, 0.1014135330915451, -0.022774174812727595, -1.5700631649742434, -6.227213736217045
370927, 0.002666652901098132, -0.00622072909027338, 0.00029384176013991237, -0.02763858251273632, 0.02158263325691223, 0.9997352361679077, 0.24605560302734375, 9362.0, 28835.0, 32767.0, 9362.0, 0.0, 7.9537200927734375, -2.372466564178467, -1.546756625175476, 0.1026013046503067, -0.2502166397440743, -2.4397218072479347, -6.210759154378848
370937, 0.007807136047631502, -0.01479289960116148, 5.261574551695958e-05, -0.0283046942204237, 0.022041451185941696, 1.0011951923370361, 0.24605560302734375, 9362.0, 28835.0, 32767.0, 9362.0, 0.0, 7.9537200927734375, -2.3724987506866455, -1.5467743873596191, 0.10254275053739548, -0.21247868118842633, -2.425776696191434, -6.1947350210683
370947, 0.012137694284319878, -0.02058630995452404, -0.0014373606536537409, -0.026821784675121307, 0.02016270160675049, 1.0035806894302368, 0.0, 9362.0, 28835.0, 32767.0, 9362.0, 0.0, 7.9537200927734375, -2.3731322288513184, -1.546667218208313, 0.10142020881175995, -0.07333336456526407, -1.5609520041564622, -6.23472506194948
370957, 0.016787491738796234, -0.02820616029202938, -0.002258232096210122, -0.0268121138215065, 0.021780040115118027, 1.0023070573806763, 0.0, 9362.0, 28835.0, 32767.0, 9362.0, 0.0, 7.9537200927734375, -2.3730990886688232, -1.546705961227417, 0.10144002735614777, -0.03566301381854469, -1.5929790595759243, -6.236871737775177
370967, 0.021767616271972656, -0.03285146877169609, -0.0021606977097690105, -0.026949536055326462, 0.022798413410782814, 1.0018634796142578, -0.00547027587890625, 9362.0, 28835.0, 32767.0, 9362.0, 0.0, 7.9537200927734375, -2.3724563121795654, -1.5467722415924072, 0.10260334610939026, -0.22858888514417147, -2.4562347072542536, -6.196707654188823
370977, 0.027734383940696716, -0.04048508033156395, -0.0025630209129303694, -0.02565874345600605, 0.02213260903954506, 1.0016436576843262, -0.00547027587890625, 9362.0, 28835.0, 32767.0, 9362.0, 0.0, 7.9537200927734375, -2.3724403381347656, -1.5467606782913208, 0.10260063409805298, -0.23639489541023065, -2.461021535155055, -6.204528198071125
370987, 0.031431298702955246, -0.04617461934685707, -0.0034106315579265356, -0.026694703847169876, 0.02055167779326439, 1.0018121004104614, -0.03281402587890625, 9362.0, 28835.0, 32767.0, 9362.0, 0.0, 7.9537200927734375, -2.3731420040130615, -1.5467137098312378, 0.10140983760356903, -0.02317219477470698, -1.5465173080009151, -6.230745415246031
370997, 0.037476733326911926, -0.0529983714222908, -0.005476420745253563, -0.027924440801143646, 0.022474098950624466, 1.0004549026489258, -0.03281402587890625, 9362.0, 28835.0, 32767.0, 9362.0, 0.0, 7.9537200927734375, -2.3731443881988525, -1.5466879606246948, 0.10140589624643326, -0.04421092499659588, -1.558998758707986, -6.234095939803636
371007, 0.04161284118890762, -0.05819283425807953, -0.005055268760770559, -0.028047945350408554, 0.022879058495163918, 1.0017234086990356, -0.153106689453125, 9362.0, 28835.0, 32767.0, 9362.0, 0.0, 7.9537200927734375, -2.372450590133667, -1.546754002571106, 0.10258989036083221, -0.22284607381903096, -2.4515345133844733, -6.217978800636371
371017, 0.048002030700445175, -0.06796271353960037, -0.005664429161697626, -0.02918265387415886, 0.02379010245203972, 1.002073049545288, -0.153106689453125, 9362.0, 28835.0, 32767.0, 9362.0, 0.0, 7.9537200927734375, -2.3724567890167236, -1.5467884540557861, 0.10259281098842621, -0.21308808769335064, -2.448718899573663, -6.209893461410877
371027, 0.05137120187282562, -0.07037275284528732, -0.006188283208757639, -0.027509139850735664, 0.021771058440208435, 1.001178503036499, -0.1093597412109375, 9362.0, 28835.0, 32767.0, 9362.0, 0.0, 7.9537200927734375, -2.3731331825256348, -1.5467033386230469, 0.10144457221031189, -0.03952857675499047, -1.5766401003074577, -6.239014867657429
371037, 0.05720680579543114, -0.07811348140239716, -0.006265793461352587, -0.027780693024396896, 0.0203445665538311, 1.0027152299880981, -0.1093597412109375, 9362.0, 28835.0, 32767.0, 9362.0, 0.0, 7.9537200927734375, -2.372443437576294, -1.5467720031738281, 0.10259993374347687, -0.22985332911112147, -2.4626181034036847, -6.205599949099025
371047, 0.06028199568390846, -0.08222402632236481, -0.007133136503398418, -0.028402546420693398, 0.020129743963479996, 1.0031466484069824, -0.1093597412109375, 9362.0, 28835.0, 32767.0, 9362.0, 0.0, 7.9537200927734375, -2.3724427223205566, -1.5467578172683716, 0.10258210450410843, -0.23887569940037617, -2.4664292540615804, -6.205082690684405
371057, 0.06872038543224335, -0.09250018745660782, -0.006860974710434675, -0.02861632965505123, 0.0227487925440073, 1.002362608909607, -0.1093597412109375, 9362.0, 28835.0, 32767.0, 9362.0, 0.0, 7.9537200927734375, -2.373152256011963, -1.5467000007629395, 0.10139855742454529, -0.026645978048377542, -1.5621844342007591, -6.240394039548212
371067, 0.07278811186552048, -0.09841065108776093, -0.007654770277440548, -0.029199376702308655, 0.02206047996878624, 1.003648281097412, -0.06562042236328125, 9362.0, 28835.0, 32767.0, 9362.0, 0.0, 7.9537200927734375, -2.373117446899414, -1.5466949939727783, 0.10139982402324677, -0.05059605109357818, -1.558897089602027, -6.231481372718952
371077, 0.07860859483480453, -0.10739327222108841, -0.009845081716775894, -0.02873370423913002, 0.023971084505319595, 1.0029478073120117, -0.06562042236328125, 9362.0, 28835.0, 32767.0, 9362.0, 0.0, 7.9537200927734375, -2.3724613189697266, -1.5467699766159058, 0.10262252390384674, -0.2390397026544929, -2.4593964119861482, -6.203022334780643
371087, 0.08224759995937347, -0.11209122836589813, -0.011275649070739746, -0.02850300259888172, 0.02231276035308838, 1.0018396377563477, -0.101165771484375, 9362.0, 28835.0, 32767.0, 9362.0, 0.0, 7.9537200927734375, -2.372462511062622, -1.5467294454574585, 0.10257525742053986, -0.25392361300559213, -2.4409413918475877, -6.213097821974183
371097, 0.08889328688383102, -0.12237482517957687, -0.013646983541548252, -0.028121842071413994, 0.02110746130347252, 1.0019071102142334, -0.101165771484375, 9362.0, 28835.0, 32767.0, 9362.0, 0.0, 7.9537200927734375, -2.372468948364258, -1.5467556715011597, 0.10258181393146515, -0.24636819596370763, -2.4425323424025294, -6.212055136140313
371107, 0.09288016706705093, -0.12772919237613678, -0.014363902620971203, -0.029001563787460327, 0.022026220336556435, 1.0011954307556152, -0.08203125, 9362.0, 28835.0, 32767.0, 9362.0, 0.0, 7.9537200927734375, -2.3724358081817627, -1.546755075454712, 0.10260508954524994, -0.2524816427104065, -2.47569016752243, -6.199788120307843
371117, 0.10086824744939804, -0.13434511423110962, -0.01533715333789587, -0.02823198214173317, 0.02234181948006153, 1.0020649433135986, -0.08203125, 9362.0, 28835.0, 32767.0, 9362.0, 0.0, 7.9537200927734375, -2.372459650039673, -1.5467636585235596, 0.10263039171695709, -0.23108805691354595, -2.4520728734428587, -6.204549486572978
371127, 0.10459127277135849, -0.13968494534492493, -0.016038216650485992, -0.028555436059832573, 0.023193052038550377, 1.0021655559539795, -0.13396453857421875, 9362.0, 28835.0, 32767.0, 9362.0, 0.0, 7.9537200927734375, -2.3731467723846436, -1.546697974205017, 0.10142350196838379, -0.03426176507503618, -1.5762443557410108, -6.240073464657488
371137, 0.11135819554328918, -0.14447680115699768, -0.016132134944200516, -0.02753046341240406, 0.02249128930270672, 1.0003581047058105, -0.13396453857421875, 9362.0, 28835.0, 32767.0, 9362.0, 0.0, 7.9537200927734375, -2.3724493980407715, -1.5467609167099, 0.10255523025989532, -0.22083376198962626, -2.4270575022951846, -6.202343972610733
371147, 0.11358668655157089, -0.14917819201946259, -0.01749850995838642, -0.027448832988739014, 0.022994404658675194, 1.0017915964126587, -0.10662841796875, 9362.0, 28835.0, 32767.0, 9362.0, 0.0, 7.9537200927734375, -2.372448205947876, -1.5467792749404907, 0.10258889198303223, -0.21529019096876828, -2.462948831775037, -6.201609903690304
